sep=;
ACCELEROMETER X (m/s²);ACCELEROMETER Y (m/s²);ACCELEROMETER Z (m/s²);GRAVITY X (m/s²);GRAVITY Y (m/s²);GRAVITY Z (m/s²);LINEAR ACCELERATION X (m/s²);LINEAR ACCELERATION Y (m/s²);LINEAR ACCELERATION Z (m/s²);GYROSCOPE X (rad/s);GYROSCOPE Y (rad/s);GYROSCOPE Z (rad/s);LIGHT (lux);MAGNETIC FIELD X (μT);MAGNETIC FIELD Y (μT);MAGNETIC FIELD Z (μT);ORIENTATION Z (azimuth °);ORIENTATION X (pitch °);ORIENTATION Y (roll °);PROXIMITY (m);SOUND LEVEL (dB);LOCATION Latitude : ;LOCATION Longitude : ;LOCATION Altitude ( m);LOCATION Altitude-google ( m);LOCATION Speed ( Kmh);LOCATION Accuracy ( m);LOCATION ORIENTATION (°);Satellites in range;Time since start in ms ;YYYY-MO-DD HH-MI-SS_SSS
2.77406;4.6547;7.36815;3.10231;5.64723;7.39289;-0.48612;-0.06142;-0.07431;-0.0577;0.18652;-0.1629;13.94559;5.647;-17.31;-33.414;277.125;-35.16;-22.765;5.0;48.154;47.4791;8.211027;402.7;NaN;;23.402;;0 / 2;17;2022-09-27 20:14:50:808
2.77406;4.6547;7.36815;3.10231;5.64723;7.39289;-0.48612;-0.06142;-0.07431;-0.0577;0.18652;-0.1629;13.94559;5.647;-17.31;-33.414;277.125;-35.16;-22.765;5.0;48.154;47.4791;8.211027;402.7;NaN;;23.402;;0 / 2;28;2022-09-27 20:14:50:819
2.77406;4.6547;7.36815;3.10231;5.64723;7.39289;-0.48612;-0.06142;-0.07431;-0.50572;0.54978;-0.04603;13.94559;5.647;-17.31;-33.414;277.125;-35.16;-22.765;5.0;48.154;47.4791;8.211027;402.7;NaN;;23.402;;0 / 2;37;2022-09-27 20:14:50:828
2.77406;4.6547;7.36815;3.10231;5.64723;7.39289;-0.48612;-0.06142;-0.07431;-0.50572;0.54978;-0.04603;13.94559;5.647;-17.31;-33.414;277.125;-35.16;-22.765;5.0;48.154;47.4791;8.211027;402.7;NaN;;23.402;;0 / 2;47;2022-09-27 20:14:50:838
2.77406;4.6547;7.36815;3.10231;5.64723;7.39289;-0.48612;-0.06142;-0.07431;-0.50572;0.54978;-0.04603;13.94559;5.647;-17.31;-33.414;277.125;-35.16;-22.765;5.0;48.154;47.4791;8.211027;402.7;NaN;;23.402;;0 / 2;57;2022-09-27 20:14:50:848
3.61727;5.47635;9.4594;3.10231;5.64723;7.39289;-0.48612;-0.06142;-0.07431;-0.50572;0.54978;-0.04603;13.94559;5.647;-17.31;-33.414;277.125;-35.16;-22.765;5.0;48.154;47.4791;8.211027;402.7;NaN;;23.402;;0 / 2;67;2022-09-27 20:14:50:858
3.61727;5.47635;9.4594;2.43205;5.29224;7.88972;-0.44089;0.56876;0.38168;-0.50572;0.54978;-0.04603;13.94559;5.647;-17.31;-33.414;277.125;-35.16;-22.765;5.0;48.154;47.4791;8.211027;402.7;NaN;;23.402;;0 / 2;77;2022-09-27 20:14:50:868
3.61727;5.47635;9.4594;2.43205;5.29224;7.88972;-0.44089;0.56876;0.38168;-0.50572;0.54978;-0.04603;13.94559;5.647;-17.31;-33.414;277.125;-35.16;-22.765;5.0;48.154;47.4791;8.211027;402.7;NaN;;23.402;;0 / 2;86;2022-09-27 20:14:50:877
3.61727;5.47635;9.4594;2.43205;5.29224;7.88972;-0.44089;0.56876;0.38168;-0.50572;0.54978;-0.04603;13.94559;5.647;-17.31;-33.414;277.125;-35.16;-22.765;5.0;48.154;47.4791;8.211027;402.7;NaN;;23.402;;0 / 2;97;2022-09-27 20:14:50:888
3.61727;5.47635;9.4594;2.43205;5.29224;7.88972;-0.44089;0.56876;0.38168;-0.50572;0.54978;-0.04603;13.94559;5.647;-17.31;-33.414;277.125;-35.16;-22.765;5.0;48.154;47.4791;8.211027;402.7;NaN;;23.402;;0 / 2;107;2022-09-27 20:14:50:898
3.61727;5.47635;9.4594;2.43205;5.29224;7.88972;-0.44089;0.56876;0.38168;-0.50572;0.54978;-0.04603;13.94559;5.647;-17.31;-33.414;277.125;-35.16;-22.765;5.0;48.154;47.4791;8.211027;402.7;NaN;;23.402;;0 / 2;117;2022-09-27 20:14:50:908
3.61727;5.47635;9.4594;2.43205;5.29224;7.88972;-0.44089;0.56876;0.38168;-0.50572;0.54978;-0.04603;13.94559;5.647;-17.31;-33.414;277.125;-35.16;-22.765;5.0;48.154;47.4791;8.211027;402.7;NaN;;23.402;;0 / 2;127;2022-09-27 20:14:50:918
3.61727;5.47635;9.4594;2.43205;5.29224;7.88972;-0.44089;0.56876;0.38168;-0.50572;0.54978;-0.04603;13.94559;5.647;-17.31;-33.414;277.125;-35.16;-22.765;5.0;48.154;47.4791;8.211027;402.7;NaN;;23.402;;0 / 2;137;2022-09-27 20:14:50:928
3.61727;5.47635;9.4594;2.43205;5.29224;7.88972;-0.44089;0.56876;0.38168;-0.50572;0.54978;-0.04603;13.94559;5.647;-17.31;-33.414;277.125;-35.16;-22.765;5.0;48.154;47.4791;8.211027;402.7;NaN;;23.402;;0 / 2;147;2022-09-27 20:14:50:938
3.61727;5.47635;9.4594;2.43205;5.29224;7.88972;-0.44089;0.56876;0.38168;-0.50572;0.54978;-0.04603;13.94559;5.647;-17.31;-33.414;277.125;-35.16;-22.765;5.0;48.154;47.4791;8.211027;402.7;NaN;;23.402;;0 / 2;157;2022-09-27 20:14:50:948
2.57044;5.01882;8.73118;2.43205;5.29224;7.88972;-0.44089;0.56876;0.38168;-0.50572;0.54978;-0.04603;13.94559;5.44;-15.955;-34.348;282.461;-32.66;-17.132;5.0;48.154;47.4791;8.211027;402.7;NaN;;23.402;;0 / 2;166;2022-09-27 20:14:50:957
2.57044;5.01882;8.73118;2.43205;5.29224;7.88972;-0.44089;0.56876;0.38168;-0.15068;0.16659;-0.02168;13.94559;5.44;-15.955;-34.348;282.461;-32.66;-17.132;5.0;48.154;47.4791;8.211027;402.7;NaN;;23.402;;0 / 2;177;2022-09-27 20:14:50:968
2.57044;5.01882;8.73118;2.43205;5.29224;7.88972;-0.44089;0.56876;0.38168;-0.15068;0.16659;-0.02168;13.94559;5.44;-15.955;-34.348;282.461;-32.66;-17.132;5.0;48.154;47.4791;8.211027;402.7;NaN;;23.402;;0 / 2;187;2022-09-27 20:14:50:978
2.57044;5.01882;8.73118;2.43205;5.29224;7.88972;-0.44089;0.56876;0.38168;-0.15068;0.16659;-0.02168;13.94559;5.44;-15.955;-34.348;282.461;-32.66;-17.132;5.0;48.154;47.4791;8.211027;402.7;NaN;;23.402;;0 / 2;197;2022-09-27 20:14:50:988
2.57044;5.01882;8.73118;2.43205;5.29224;7.88972;-0.44089;0.56876;0.38168;-0.15068;0.16659;-0.02168;13.94559;5.44;-15.955;-34.348;282.461;-32.66;-17.132;5.0;48.154;47.4791;8.211027;402.7;NaN;;23.402;;0 / 2;228;2022-09-27 20:14:51:019
2.57044;5.01882;8.73118;2.43205;5.29224;7.88972;-0.44089;0.56876;0.38168;-0.15068;0.16659;-0.02168;13.94559;5.44;-15.955;-34.348;282.461;-32.66;-17.132;5.0;48.154;47.4791;8.211027;402.7;NaN;;23.402;;0 / 2;228;2022-09-27 20:14:51:019
2.57044;5.01882;8.73118;2.43205;5.29224;7.88972;-0.44089;0.56876;0.38168;-0.15068;0.16659;-0.02168;13.94559;5.44;-15.955;-34.348;282.461;-32.66;-17.132;5.0;48.154;47.4791;8.211027;402.7;NaN;;23.402;;0 / 2;229;2022-09-27 20:14:51:020
2.57044;5.01882;8.73118;2.3081;4.99783;8.11571;-0.20547;-0.15169;-1.1102;-0.15068;0.16659;-0.02168;13.94559;5.44;-15.955;-34.348;282.461;-32.66;-17.132;5.0;48.154;47.4791;8.211027;402.7;NaN;;23.402;;0 / 2;237;2022-09-27 20:14:51:028
2.57044;5.01882;8.73118;2.3081;4.99783;8.11571;-0.20547;-0.15169;-1.1102;-0.15068;0.16659;-0.02168;13.94559;5.44;-15.955;-34.348;282.461;-32.66;-17.132;5.0;48.154;47.4791;8.211027;402.7;NaN;;23.402;;0 / 2;246;2022-09-27 20:14:51:037
2.57044;5.01882;8.73118;2.3081;4.99783;8.11571;-0.20547;-0.15169;-1.1102;-0.15068;0.16659;-0.02168;13.94559;5.44;-15.955;-34.348;282.461;-32.66;-17.132;5.0;48.154;47.4791;8.211027;402.7;NaN;;23.402;;0 / 2;258;2022-09-27 20:14:51:049
1.89252;4.58284;9.73728;2.3081;4.99783;8.11571;-0.20547;-0.15169;-1.1102;-0.15068;0.16659;-0.02168;13.94559;5.44;-15.955;-34.348;282.461;-32.66;-17.132;5.0;48.154;47.4791;8.211027;402.7;NaN;;23.402;;0 / 2;267;2022-09-27 20:14:51:058
1.89252;4.58284;9.73728;2.3081;4.99783;8.11571;-0.20547;-0.15169;-1.1102;-0.15068;0.16659;-0.02168;13.94559;5.44;-15.955;-34.348;282.461;-32.66;-17.132;5.0;50.757;47.4791;8.211027;402.7;NaN;;23.402;;0 / 2;278;2022-09-27 20:14:51:069
1.89252;4.58284;9.73728;2.3081;4.99783;8.11571;-0.20547;-0.15169;-1.1102;-0.15068;0.16659;-0.02168;13.94559;5.44;-15.955;-34.348;282.461;-32.66;-17.132;5.0;50.757;47.4791;8.211027;402.7;NaN;;23.402;;0 / 2;296;2022-09-27 20:14:51:087
1.89252;4.58284;9.73728;2.3081;4.99783;8.11571;-0.20547;-0.15169;-1.1102;-0.15068;0.16659;-0.02168;13.94559;5.44;-15.955;-34.348;282.461;-32.66;-17.132;5.0;50.757;47.4791;8.211027;402.7;NaN;;23.402;;0 / 2;296;2022-09-27 20:14:51:087
1.89252;4.58284;9.73728;2.3081;4.99783;8.11571;-0.20547;-0.15169;-1.1102;-0.15068;0.16659;-0.02168;13.94559;5.44;-15.955;-34.348;282.461;-32.66;-17.132;5.0;50.757;47.4791;8.211027;402.7;NaN;;23.402;;0 / 2;307;2022-09-27 20:14:51:098
1.89252;4.58284;9.73728;2.3081;4.99783;8.11571;-0.20547;-0.15169;-1.1102;0.09448;0.40216;-0.22469;13.94559;5.44;-15.955;-34.348;282.461;-32.66;-17.132;5.0;50.757;47.4791;8.211027;402.7;NaN;;23.402;;0 / 2;319;2022-09-27 20:14:51:110
1.89252;4.58284;9.73728;2.3081;4.99783;8.11571;-0.20547;-0.15169;-1.1102;0.09448;0.40216;-0.22469;13.94559;5.44;-15.955;-34.348;282.461;-32.66;-17.132;5.0;50.757;47.4791;8.211027;402.7;NaN;;23.402;;0 / 2;328;2022-09-27 20:14:51:119
1.89252;4.58284;9.73728;2.3081;4.99783;8.11571;-0.20547;-0.15169;-1.1102;0.09448;0.40216;-0.22469;13.94559;5.44;-15.955;-34.348;282.461;-32.66;-17.132;5.0;50.757;47.4791;8.211027;402.7;NaN;;23.402;;0 / 2;336;2022-09-27 20:14:51:127
0.64448;5.33262;8.09158;1.8782;4.85808;8.30914;0.39869;-0.40656;0.86175;0.09448;0.40216;-0.22469;13.94559;5.44;-15.955;-34.348;282.461;-32.66;-17.132;5.0;50.757;47.4791;8.211027;402.7;NaN;;23.402;;0 / 2;348;2022-09-27 20:14:51:139
0.64448;5.33262;8.09158;1.8782;4.85808;8.30914;0.39869;-0.40656;0.86175;0.09448;0.40216;-0.22469;13.94559;5.44;-15.955;-34.348;282.461;-32.66;-17.132;5.0;50.757;47.4791;8.211027;402.7;NaN;;23.402;;0 / 2;360;2022-09-27 20:14:51:151
0.64448;5.33262;8.09158;1.8782;4.85808;8.30914;0.39869;-0.40656;0.86175;0.09448;0.40216;-0.22469;13.94559;8.11;-15.0;-34.943;280.969;-29.695;-12.737;5.0;50.757;47.4791;8.211027;402.7;NaN;;23.402;;0 / 2;366;2022-09-27 20:14:51:157
0.64448;5.33262;8.09158;1.8782;4.85808;8.30914;0.39869;-0.40656;0.86175;0.09448;0.40216;-0.22469;13.94559;8.11;-15.0;-34.943;280.969;-29.695;-12.737;5.0;50.757;47.4791;8.211027;402.7;NaN;;23.402;;0 / 2;378;2022-09-27 20:14:51:169
0.64448;5.33262;8.09158;1.8782;4.85808;8.30914;0.39869;-0.40656;0.86175;0.09448;0.40216;-0.22469;13.94559;8.11;-15.0;-34.943;280.969;-29.695;-12.737;5.0;50.757;47.4791;8.211027;402.7;NaN;;23.402;;0 / 2;387;2022-09-27 20:14:51:178
0.64448;5.33262;8.09158;1.8782;4.85808;8.30914;0.39869;-0.40656;0.86175;0.09448;0.40216;-0.22469;13.94559;8.11;-15.0;-34.943;280.969;-29.695;-12.737;5.0;50.757;47.4791;8.211027;402.7;NaN;;23.402;;0 / 2;398;2022-09-27 20:14:51:189
0.64448;5.33262;8.09158;1.8782;4.85808;8.30914;0.39869;-0.40656;0.86175;0.09448;0.40216;-0.22469;13.94559;8.11;-15.0;-34.943;280.969;-29.695;-12.737;5.0;50.757;47.4791;8.211027;402.7;NaN;;23.402;;0 / 2;407;2022-09-27 20:14:51:198
0.64448;5.33262;8.09158;1.8782;4.85808;8.30914;0.39869;-0.40656;0.86175;0.09448;0.40216;-0.22469;13.94559;8.11;-15.0;-34.943;280.969;-29.695;-12.737;5.0;50.757;47.4791;8.211027;402.7;NaN;;23.402;;0 / 2;417;2022-09-27 20:14:51:208
0.64448;5.33262;8.09158;1.8782;4.85808;8.30914;0.39869;-0.40656;0.86175;0.09448;0.40216;-0.22469;13.94559;8.11;-15.0;-34.943;280.969;-29.695;-12.737;5.0;50.757;47.4791;8.211027;402.7;NaN;;23.402;;0 / 2;427;2022-09-27 20:14:51:218
0.64448;5.33262;8.09158;1.8782;4.85808;8.30914;0.39869;-0.40656;0.86175;0.09448;0.40216;-0.22469;13.94559;8.11;-15.0;-34.943;280.969;-29.695;-12.737;5.0;50.757;47.4791;8.211027;402.7;NaN;;23.402;;0 / 2;437;2022-09-27 20:14:51:228
0.64448;5.33262;8.09158;1.8782;4.85808;8.30914;0.39869;-0.40656;0.86175;0.09448;0.40216;-0.22469;13.94559;8.11;-15.0;-34.943;280.969;-29.695;-12.737;5.0;50.757;47.4791;8.211027;402.7;NaN;;23.402;;0 / 2;446;2022-09-27 20:14:51:237
1.62663;4.8679;7.72508;1.8782;4.85808;8.30914;0.39869;-0.40656;0.86175;-0.18781;-0.20352;0.0917;13.94559;8.11;-15.0;-34.943;280.969;-29.695;-12.737;5.0;50.757;47.4791;8.211027;402.7;NaN;;23.402;;0 / 2;457;2022-09-27 20:14:51:248
1.62663;4.8679;7.72508;1.8782;4.85808;8.30914;0.39869;-0.40656;0.86175;-0.18781;-0.20352;0.0917;13.94559;8.11;-15.0;-34.943;280.969;-29.695;-12.737;5.0;50.757;47.4791;8.211027;402.7;NaN;;23.402;;0 / 2;467;2022-09-27 20:14:51:258
1.62663;4.8679;7.72508;1.8782;4.85808;8.30914;0.39869;-0.40656;0.86175;-0.18781;-0.20352;0.0917;13.94559;8.11;-15.0;-34.943;280.969;-29.695;-12.737;5.0;50.757;47.4791;8.211027;402.7;NaN;;23.402;;0 / 2;477;2022-09-27 20:14:51:268
1.62663;4.8679;7.72508;1.8782;4.85808;8.30914;0.39869;-0.40656;0.86175;-0.18781;-0.20352;0.0917;13.94559;8.11;-15.0;-34.943;280.969;-29.695;-12.737;5.0;50.757;47.4791;8.211027;402.7;NaN;;23.402;;0 / 2;486;2022-09-27 20:14:51:277
1.62663;4.8679;7.72508;1.8782;4.85808;8.30914;0.39869;-0.40656;0.86175;-0.18781;-0.20352;0.0917;13.94559;8.11;-15.0;-34.943;280.969;-29.695;-12.737;5.0;50.757;47.4791;8.211027;402.7;NaN;;23.402;;0 / 2;497;2022-09-27 20:14:51:288
1.62663;4.8679;7.72508;1.8782;4.85808;8.30914;0.39869;-0.40656;0.86175;-0.18781;-0.20352;0.0917;13.94559;8.11;-15.0;-34.943;280.969;-29.695;-12.737;5.0;50.757;47.4791;8.211027;402.7;NaN;;23.402;;0 / 2;507;2022-09-27 20:14:51:298
1.62663;4.8679;7.72508;1.8782;4.85808;8.30914;0.39869;-0.40656;0.86175;-0.18781;-0.20352;0.0917;13.94559;8.11;-15.0;-34.943;280.969;-29.695;-12.737;5.0;50.757;47.4791;8.211027;402.7;NaN;;23.402;;0 / 2;517;2022-09-27 20:14:51:308
1.62663;4.8679;7.72508;1.8782;4.85808;8.30914;0.39869;-0.40656;0.86175;-0.18781;-0.20352;0.0917;13.94559;8.11;-15.0;-34.943;280.969;-29.695;-12.737;5.0;50.757;47.4791;8.211027;402.7;NaN;;23.402;;0 / 2;527;2022-09-27 20:14:51:318
1.89492;4.8655;7.93109;1.93832;4.80489;8.32625;-0.68595;0.43876;-0.45571;-0.18781;-0.20352;0.0917;13.94559;8.11;-15.0;-34.943;280.969;-29.695;-12.737;5.0;50.757;47.4791;8.211027;402.7;NaN;;23.402;;0 / 2;538;2022-09-27 20:14:51:329
1.89492;4.8655;7.93109;1.93832;4.80489;8.32625;-0.68595;0.43876;-0.45571;-0.18781;-0.20352;0.0917;13.94559;8.11;-15.0;-34.943;280.969;-29.695;-12.737;5.0;50.757;47.4791;8.211027;402.7;NaN;;23.402;;0 / 2;547;2022-09-27 20:14:51:338
1.89492;4.8655;7.93109;1.93832;4.80489;8.32625;-0.68595;0.43876;-0.45571;-0.18781;-0.20352;0.0917;13.94559;8.11;-15.0;-34.943;280.969;-29.695;-12.737;5.0;50.757;47.4791;8.211027;402.7;NaN;;23.402;;0 / 2;556;2022-09-27 20:14:51:347
1.89492;4.8655;7.93109;1.93832;4.80489;8.32625;-0.68595;0.43876;-0.45571;-0.18781;-0.20352;0.0917;13.94559;8.823;-15.477;-35.868;280.388;-29.338;-13.105;5.0;50.757;47.4791;8.211027;402.7;NaN;;23.402;;0 / 2;567;2022-09-27 20:14:51:358
1.89492;4.8655;7.93109;1.93832;4.80489;8.32625;-0.68595;0.43876;-0.45571;-0.18781;-0.20352;0.0917;13.94559;8.823;-15.477;-35.868;280.388;-29.338;-13.105;5.0;50.757;47.4791;8.211027;402.7;NaN;;23.402;;0 / 2;576;2022-09-27 20:14:51:367
1.89492;4.8655;7.93109;1.93832;4.80489;8.32625;-0.68595;0.43876;-0.45571;-0.18781;-0.20352;0.0917;13.94559;8.823;-15.477;-35.868;280.388;-29.338;-13.105;5.0;50.757;47.4791;8.211027;402.7;NaN;;23.402;;0 / 2;587;2022-09-27 20:14:51:378
1.89492;4.8655;7.93109;1.93832;4.80489;8.32625;-0.68595;0.43876;-0.45571;-0.18781;-0.20352;0.0917;4.54964;8.823;-15.477;-35.868;280.388;-29.338;-13.105;5.0;50.757;47.4791;8.211027;402.7;NaN;;23.402;;0 / 2;597;2022-09-27 20:14:51:388
1.89492;4.8655;7.93109;1.93832;4.80489;8.32625;-0.68595;0.43876;-0.45571;-0.18781;-0.20352;0.0917;4.54964;8.823;-15.477;-35.868;280.388;-29.338;-13.105;5.0;50.757;47.4791;8.211027;402.7;NaN;;23.402;;0 / 2;607;2022-09-27 20:14:51:398
1.89492;4.8655;7.93109;1.93832;4.80489;8.32625;-0.68595;0.43876;-0.45571;-0.1169;0.08456;0.05091;4.54964;8.823;-15.477;-35.868;280.388;-29.338;-13.105;5.0;49.2029;47.4791;8.211027;402.7;NaN;;23.402;;0 / 2;617;2022-09-27 20:14:51:408
2.19435;4.57805;9.16476;1.93832;4.80489;8.32625;-0.68595;0.43876;-0.45571;-0.1169;0.08456;0.05091;4.54964;8.823;-15.477;-35.868;280.388;-29.338;-13.105;5.0;49.2029;47.4791;8.211027;402.7;NaN;;23.402;;0 / 2;626;2022-09-27 20:14:51:417
2.19435;4.57805;9.16476;1.93832;4.80489;8.32625;-0.68595;0.43876;-0.45571;-0.1169;0.08456;0.05091;4.54964;8.823;-15.477;-35.868;280.388;-29.338;-13.105;5.0;49.2029;47.4791;8.211027;402.7;NaN;;23.402;;0 / 2;637;2022-09-27 20:14:51:428
2.19435;4.57805;9.16476;1.93832;4.80489;8.32625;-0.68595;0.43876;-0.45571;-0.1169;0.08456;0.05091;4.54964;8.823;-15.477;-35.868;280.388;-29.338;-13.105;5.0;49.2029;47.4791;8.211027;402.7;NaN;;23.402;;0 / 2;647;2022-09-27 20:14:51:438
2.19435;4.57805;9.16476;1.93832;4.80489;8.32625;-0.68595;0.43876;-0.45571;-0.1169;0.08456;0.05091;4.54964;8.823;-15.477;-35.868;280.388;-29.338;-13.105;5.0;49.2029;47.4791;8.211027;402.7;NaN;;23.402;;0 / 2;657;2022-09-27 20:14:51:448
2.19435;4.57805;9.16476;1.93832;4.80489;8.32625;-0.68595;0.43876;-0.45571;-0.1169;0.08456;0.05091;4.54964;8.823;-15.477;-35.868;280.388;-29.338;-13.105;5.0;49.2029;47.4791;8.211027;402.7;NaN;;23.402;;0 / 2;667;2022-09-27 20:14:51:458
2.19435;4.57805;9.16476;1.93832;4.80489;8.32625;-0.68595;0.43876;-0.45571;-0.1169;0.08456;0.05091;4.54964;8.823;-15.477;-35.868;280.388;-29.338;-13.105;5.0;49.2029;47.4791;8.211027;402.7;NaN;;23.402;;0 / 2;677;2022-09-27 20:14:51:468
2.19435;4.57805;9.16476;1.98021;4.60567;8.42834;0.38275;-0.21997;0.15486;-0.1169;0.08456;0.05091;4.54964;8.823;-15.477;-35.868;280.388;-29.338;-13.105;5.0;49.2029;47.4791;8.211027;402.7;NaN;;23.402;;0 / 2;687;2022-09-27 20:14:51:478
1.14513;4.43911;9.42826;1.98021;4.60567;8.42834;0.38275;-0.21997;0.15486;-0.1169;0.08456;0.05091;4.54964;8.823;-15.477;-35.868;280.388;-29.338;-13.105;5.0;49.2029;47.4791;8.211027;402.7;NaN;;23.402;;0 / 2;710;2022-09-27 20:14:51:501
1.14513;4.43911;9.42826;1.98021;4.60567;8.42834;0.38275;-0.21997;0.15486;-0.1169;0.08456;0.05091;4.54964;8.823;-15.477;-35.868;280.388;-29.338;-13.105;5.0;49.2029;47.4791;8.211027;402.7;NaN;;23.402;;0 / 2;711;2022-09-27 20:14:51:502
1.14513;4.43911;9.42826;1.98021;4.60567;8.42834;0.38275;-0.21997;0.15486;-0.1169;0.08456;0.05091;4.54964;8.823;-15.477;-35.868;280.388;-29.338;-13.105;5.0;49.2029;47.4791;8.211027;402.7;NaN;;23.402;;0 / 2;716;2022-09-27 20:14:51:507
1.14513;4.43911;9.42826;1.98021;4.60567;8.42834;0.38275;-0.21997;0.15486;-0.1169;0.08456;0.05091;4.54964;8.823;-15.477;-35.868;280.388;-29.338;-13.105;5.0;49.2029;47.4791;8.211027;402.7;NaN;;23.402;;0 / 2;727;2022-09-27 20:14:51:518
1.14513;4.43911;9.42826;1.98021;4.60567;8.42834;0.38275;-0.21997;0.15486;-0.1169;0.08456;0.05091;4.54964;8.823;-15.477;-35.868;280.388;-29.338;-13.105;5.0;49.2029;47.4791;8.211027;402.7;NaN;;23.402;;0 / 2;737;2022-09-27 20:14:51:528
1.14513;4.43911;9.42826;1.98021;4.60567;8.42834;0.38275;-0.21997;0.15486;-0.1169;0.08456;0.05091;4.54964;8.823;-15.477;-35.868;280.388;-29.338;-13.105;5.0;49.2029;47.4791;8.211027;402.7;NaN;;23.402;;0 / 2;747;2022-09-27 20:14:51:538
1.14513;4.43911;9.42826;1.98021;4.60567;8.42834;0.38275;-0.21997;0.15486;-0.1169;0.08456;0.05091;4.54964;8.823;-15.477;-35.868;280.388;-29.338;-13.105;5.0;49.2029;47.4791;8.211027;402.7;NaN;;23.402;;0 / 2;757;2022-09-27 20:14:51:548
1.14513;4.43911;9.42826;1.89184;4.50852;8.50086;0.38275;-0.21997;0.15486;-0.09392;-0.0037;-0.32391;4.54964;7.645;-14.641;-36.032;278.369;-28.011;-13.222;5.0;49.2029;47.4791;8.211027;402.7;NaN;;23.402;;0 / 2;767;2022-09-27 20:14:51:558
1.14513;4.43911;9.42826;1.89184;4.50852;8.50086;0.38275;-0.21997;0.15486;-0.09392;-0.0037;-0.32391;4.54964;7.645;-14.641;-36.032;278.369;-28.011;-13.222;5.0;49.2029;47.4791;8.211027;402.7;NaN;;23.402;;0 / 2;776;2022-09-27 20:14:51:567
1.14513;4.43911;9.42826;1.89184;4.50852;8.50086;0.38275;-0.21997;0.15486;-0.09392;-0.0037;-0.32391;4.54964;7.645;-14.641;-36.032;278.369;-28.011;-13.222;5.0;49.2029;47.4791;8.211027;402.7;NaN;;23.402;;0 / 2;788;2022-09-27 20:14:51:579
1.14513;4.43911;9.42826;1.89184;4.50852;8.50086;0.38275;-0.21997;0.15486;-0.09392;-0.0037;-0.32391;20.0;7.645;-14.641;-36.032;278.369;-28.011;-13.222;5.0;49.2029;47.4791;8.211027;402.7;NaN;;23.402;;0 / 2;796;2022-09-27 20:14:51:587
1.14513;4.43911;9.42826;1.89184;4.50852;8.50086;0.38275;-0.21997;0.15486;-0.09392;-0.0037;-0.32391;20.0;7.645;-14.641;-36.032;278.369;-28.011;-13.222;5.0;49.2029;47.4791;8.211027;402.7;NaN;;23.402;;0 / 2;808;2022-09-27 20:14:51:599
1.14513;4.43911;9.42826;1.89184;4.50852;8.50086;0.38275;-0.21997;0.15486;-0.09392;-0.0037;-0.32391;20.0;7.645;-14.641;-36.032;278.369;-28.011;-13.222;5.0;49.2029;47.4791;8.211027;402.7;NaN;;23.402;;0 / 2;817;2022-09-27 20:14:51:608
1.14513;4.43911;9.42826;1.89184;4.50852;8.50086;0.38275;-0.21997;0.15486;-0.09392;-0.0037;-0.32391;20.0;7.645;-14.641;-36.032;278.369;-28.011;-13.222;5.0;49.2029;47.4791;8.211027;402.7;NaN;;23.402;;0 / 2;827;2022-09-27 20:14:51:618
1.41103;2.77425;8.04367;1.89184;4.50852;8.50086;-0.96914;-0.14279;-0.59916;-0.09392;-0.0037;-0.32391;20.0;7.645;-14.641;-36.032;278.369;-28.011;-13.222;5.0;49.2029;47.4791;8.211027;402.7;NaN;;23.402;;0 / 2;837;2022-09-27 20:14:51:628
1.41103;2.77425;8.04367;1.89184;4.50852;8.50086;-0.96914;-0.14279;-0.59916;-0.09392;-0.0037;-0.32391;20.0;7.645;-14.641;-36.032;278.369;-28.011;-13.222;5.0;49.2029;47.4791;8.211027;402.7;NaN;;23.402;;0 / 2;851;2022-09-27 20:14:51:642
1.41103;2.77425;8.04367;1.89184;4.50852;8.50086;-0.96914;-0.14279;-0.59916;-0.09392;-0.0037;-0.32391;20.0;7.645;-14.641;-36.032;278.369;-28.011;-13.222;5.0;49.2029;47.4791;8.211027;402.7;NaN;;23.402;;0 / 2;856;2022-09-27 20:14:51:647
1.41103;2.77425;8.04367;1.89184;4.50852;8.50086;-0.96914;-0.14279;-0.59916;-0.09392;-0.0037;-0.32391;20.0;7.645;-14.641;-36.032;278.369;-28.011;-13.222;5.0;49.2029;47.4791;8.211027;402.7;NaN;;23.402;;0 / 2;867;2022-09-27 20:14:51:658
1.41103;2.77425;8.04367;1.89184;4.50852;8.50086;-0.96914;-0.14279;-0.59916;-0.09392;-0.0037;-0.32391;20.0;7.645;-14.641;-36.032;278.369;-28.011;-13.222;5.0;49.2029;47.4791;8.211027;402.7;NaN;;23.402;;0 / 2;877;2022-09-27 20:14:51:668
1.41103;2.77425;8.04367;1.89184;4.50852;8.50086;-0.96914;-0.14279;-0.59916;-0.09392;-0.0037;-0.32391;20.0;7.645;-14.641;-36.032;278.369;-28.011;-13.222;5.0;49.2029;47.4791;8.211027;402.7;NaN;;23.402;;0 / 2;886;2022-09-27 20:14:51:677
1.41103;2.77425;8.04367;1.89184;4.50852;8.50086;-0.96914;-0.14279;-0.59916;-0.09392;-0.0037;-0.32391;20.0;7.645;-14.641;-36.032;278.369;-28.011;-13.222;5.0;49.2029;47.4791;8.211027;402.7;NaN;;23.402;;0 / 2;897;2022-09-27 20:14:51:688
1.41103;2.77425;8.04367;1.89184;4.50852;8.50086;-0.96914;-0.14279;-0.59916;-0.09392;-0.0037;-0.32391;20.0;7.645;-14.641;-36.032;278.369;-28.011;-13.222;5.0;49.2029;47.4791;8.211027;402.7;NaN;;23.402;;0 / 2;907;2022-09-27 20:14:51:698
1.41103;2.77425;8.04367;1.89184;4.50852;8.50086;-0.96914;-0.14279;-0.59916;-0.09392;-0.0037;-0.32391;20.0;7.645;-14.641;-36.032;278.369;-28.011;-13.222;5.0;49.2029;47.4791;8.211027;402.7;NaN;;23.402;;0 / 2;917;2022-09-27 20:14:51:708
1.41103;2.77425;8.04367;1.89184;4.50852;8.50086;-0.96914;-0.14279;-0.59916;-0.09392;-0.0037;-0.32391;20.0;7.645;-14.641;-36.032;278.369;-28.011;-13.222;5.0;49.2029;47.4791;8.211027;402.7;NaN;;23.402;;0 / 2;927;2022-09-27 20:14:51:718
1.41103;2.77425;8.04367;1.89184;4.50852;8.50086;-0.96914;-0.14279;-0.59916;-0.09392;-0.0037;-0.32391;20.0;7.645;-14.641;-36.032;278.369;-28.011;-13.222;5.0;49.2029;47.4791;8.211027;402.7;NaN;;23.402;;0 / 2;938;2022-09-27 20:14:51:729
-3.19068;4.0726;7.43762;1.04159;4.13351;8.83174;-0.08874;-1.42658;-0.52482;-0.65029;0.255;-2.56705;20.0;7.645;-14.641;-36.032;278.369;-28.011;-13.222;5.0;48.4935;47.4791;8.211027;402.7;NaN;;23.402;;0 / 2;946;2022-09-27 20:14:51:737
-3.19068;4.0726;7.43762;1.04159;4.13351;8.83174;-0.08874;-1.42658;-0.52482;-0.65029;0.255;-2.56705;20.0;7.645;-14.641;-36.032;278.369;-28.011;-13.222;5.0;48.4935;47.4791;8.211027;402.7;NaN;;23.402;;0 / 2;956;2022-09-27 20:14:51:747
-3.19068;4.0726;7.43762;1.04159;4.13351;8.83174;-0.08874;-1.42658;-0.52482;-0.65029;0.255;-2.56705;20.0;13.516;-6.707;-37.047;294.858;-24.929;-6.726;5.0;48.4935;47.4791;8.211027;402.7;NaN;;23.402;;0 / 2;967;2022-09-27 20:14:51:758
-3.19068;4.0726;7.43762;1.04159;4.13351;8.83174;-0.08874;-1.42658;-0.52482;-0.65029;0.255;-2.56705;20.0;13.516;-6.707;-37.047;294.858;-24.929;-6.726;5.0;48.4935;47.4791;8.211027;402.7;NaN;;23.402;;0 / 2;977;2022-09-27 20:14:51:768
-3.19068;4.0726;7.43762;1.04159;4.13351;8.83174;-0.08874;-1.42658;-0.52482;-0.65029;0.255;-2.56705;20.0;13.516;-6.707;-37.047;294.858;-24.929;-6.726;5.0;48.4935;47.4791;8.211027;402.7;NaN;;23.402;;0 / 2;987;2022-09-27 20:14:51:778
-3.19068;4.0726;7.43762;1.04159;4.13351;8.83174;-0.08874;-1.42658;-0.52482;-0.65029;0.255;-2.56705;20.0;13.516;-6.707;-37.047;294.858;-24.929;-6.726;5.0;48.4935;47.4791;8.211027;402.7;NaN;;23.402;;0 / 2;996;2022-09-27 20:14:51:787
-3.19068;4.0726;7.43762;1.04159;4.13351;8.83174;-0.08874;-1.42658;-0.52482;-0.65029;0.255;-2.56705;20.0;13.516;-6.707;-37.047;294.858;-24.929;-6.726;5.0;48.4935;47.4791;8.211027;402.7;NaN;;23.402;;0 / 2;1007;2022-09-27 20:14:51:798
-3.19068;4.0726;7.43762;1.04159;4.13351;8.83174;-0.08874;-1.42658;-0.52482;-0.65029;0.255;-2.56705;20.0;13.516;-6.707;-37.047;294.858;-24.929;-6.726;5.0;48.4935;47.4791;8.211027;402.7;NaN;;23.402;;0 / 2;1017;2022-09-27 20:14:51:808
-1.21681;2.50117;10.17805;-0.2712;3.46977;9.16829;-0.08874;-1.42658;-0.52482;-0.65029;0.255;-2.56705;20.0;13.516;-6.707;-37.047;294.858;-24.929;-6.726;5.0;48.4935;47.4791;8.211027;402.7;NaN;;23.402;;0 / 2;1027;2022-09-27 20:14:51:818
-1.21681;2.50117;10.17805;-0.2712;3.46977;9.16829;-0.08874;-1.42658;-0.52482;-0.65029;0.255;-2.56705;20.0;13.516;-6.707;-37.047;294.858;-24.929;-6.726;5.0;48.4935;47.4791;8.211027;402.7;NaN;;23.402;;0 / 2;1036;2022-09-27 20:14:51:827
-1.21681;2.50117;10.17805;-0.2712;3.46977;9.16829;-0.08874;-1.42658;-0.52482;-0.65029;0.255;-2.56705;20.0;13.516;-6.707;-37.047;294.858;-24.929;-6.726;5.0;48.4935;47.4791;8.211027;402.7;NaN;;23.402;;0 / 2;1046;2022-09-27 20:14:51:837
-1.21681;2.50117;10.17805;-0.2712;3.46977;9.16829;-0.08874;-1.42658;-0.52482;-0.65029;0.255;-2.56705;23.8;13.516;-6.707;-37.047;294.858;-24.929;-6.726;5.0;48.4935;47.4791;8.211027;402.7;NaN;;23.402;;0 / 2;1056;2022-09-27 20:14:51:847
-1.21681;2.50117;10.17805;-0.2712;3.46977;9.16829;-0.08874;-1.42658;-0.52482;-0.65029;0.255;-2.56705;23.8;13.516;-6.707;-37.047;294.858;-24.929;-6.726;5.0;48.4935;47.4791;8.211027;402.7;NaN;;23.402;;0 / 2;1066;2022-09-27 20:14:51:857
-1.21681;2.50117;10.17805;-0.2712;3.46977;9.16829;-0.08874;-1.42658;-0.52482;-0.65029;0.255;-2.56705;23.8;13.516;-6.707;-37.047;294.858;-24.929;-6.726;5.0;48.4935;47.4791;8.211027;402.7;NaN;;23.402;;0 / 2;1077;2022-09-27 20:14:51:868
-1.21681;2.50117;10.17805;-0.2712;3.46977;9.16829;-0.08874;-1.42658;-0.52482;-0.65029;0.255;-2.56705;23.8;13.516;-6.707;-37.047;294.858;-24.929;-6.726;5.0;48.4935;47.4791;8.211027;402.7;NaN;;23.402;;0 / 2;1087;2022-09-27 20:14:51:878
-1.21681;2.50117;10.17805;-0.2712;3.46977;9.16829;-0.08874;-1.42658;-0.52482;-0.65029;0.255;-2.56705;23.8;13.516;-6.707;-37.047;294.858;-24.929;-6.726;5.0;48.4935;47.4791;8.211027;402.7;NaN;;23.402;;0 / 2;1097;2022-09-27 20:14:51:888
-1.21681;2.50117;10.17805;-0.2712;3.46977;9.16829;1.09906;-0.19641;0.81564;-1.40191;0.01228;-0.2883;23.8;13.516;-6.707;-37.047;294.858;-24.929;-6.726;5.0;48.4935;47.4791;8.211027;402.7;NaN;;23.402;;0 / 2;1107;2022-09-27 20:14:51:898
-1.21681;2.50117;10.17805;-0.2712;3.46977;9.16829;1.09906;-0.19641;0.81564;-1.40191;0.01228;-0.2883;23.8;13.516;-6.707;-37.047;294.858;-24.929;-6.726;5.0;48.4935;47.4791;8.211027;402.7;NaN;;23.402;;0 / 2;1117;2022-09-27 20:14:51:908
-1.21681;2.50117;10.17805;-0.2712;3.46977;9.16829;1.09906;-0.19641;0.81564;-1.40191;0.01228;-0.2883;23.8;13.516;-6.707;-37.047;294.858;-24.929;-6.726;5.0;48.4935;47.4791;8.211027;402.7;NaN;;23.402;;0 / 2;1126;2022-09-27 20:14:51:917
-1.21681;2.50117;10.17805;-0.2712;3.46977;9.16829;1.09906;-0.19641;0.81564;-1.40191;0.01228;-0.2883;23.8;13.516;-6.707;-37.047;294.858;-24.929;-6.726;5.0;48.4935;47.4791;8.211027;402.7;NaN;;23.402;;0 / 2;1137;2022-09-27 20:14:51:928
-1.21681;2.50117;10.17805;-0.2712;3.46977;9.16829;1.09906;-0.19641;0.81564;-1.40191;0.01228;-0.2883;23.8;13.516;-6.707;-37.047;294.858;-24.929;-6.726;5.0;48.4935;47.4791;8.211027;402.7;NaN;;23.402;;0 / 2;1147;2022-09-27 20:14:51:938
-1.21681;2.50117;10.17805;-0.2712;3.46977;9.16829;1.09906;-0.19641;0.81564;-1.40191;0.01228;-0.2883;23.8;13.516;-6.707;-37.047;294.858;-24.929;-6.726;5.0;48.4935;47.4791;8.211027;402.7;NaN;;23.402;;0 / 2;1157;2022-09-27 20:14:51:948
-2.01211;1.07586;7.13339;-2.03038;1.40333;9.49097;1.09906;-0.19641;0.81564;-1.40191;0.01228;-0.2883;23.8;24.818;2.91;-39.09;305.274;-20.721;1.694;5.0;48.4935;47.4791;8.211027;402.7;NaN;;23.402;;0 / 2;1175;2022-09-27 20:14:51:966
-2.01211;1.07586;7.13339;-2.03038;1.40333;9.49097;1.09906;-0.19641;0.81564;-1.40191;0.01228;-0.2883;23.8;24.818;2.91;-39.09;305.274;-20.721;1.694;5.0;48.4935;47.4791;8.211027;402.7;NaN;;23.402;;0 / 2;1178;2022-09-27 20:14:51:969
-2.01211;1.07586;7.13339;-2.03038;1.40333;9.49097;1.09906;-0.19641;0.81564;-1.40191;0.01228;-0.2883;23.8;24.818;2.91;-39.09;305.274;-20.721;1.694;5.0;48.4935;47.4791;8.211027;402.7;NaN;;23.402;;0 / 2;1187;2022-09-27 20:14:51:978
-2.01211;1.07586;7.13339;-2.03038;1.40333;9.49097;1.09906;-0.19641;0.81564;-1.40191;0.01228;-0.2883;23.8;24.818;2.91;-39.09;305.274;-20.721;1.694;5.0;48.4935;47.4791;8.211027;402.7;NaN;;23.402;;0 / 2;1197;2022-09-27 20:14:51:988
-2.01211;1.07586;7.13339;-2.03038;1.40333;9.49097;1.09906;-0.19641;0.81564;-1.40191;0.01228;-0.2883;23.8;24.818;2.91;-39.09;305.274;-20.721;1.694;5.0;48.4935;47.4791;8.211027;402.7;NaN;;23.402;;0 / 2;1206;2022-09-27 20:14:51:997
-2.01211;1.07586;7.13339;-2.03038;1.40333;9.49097;1.09906;-0.19641;0.81564;-1.40191;0.01228;-0.2883;23.8;24.818;2.91;-39.09;305.274;-20.721;1.694;5.0;48.4935;47.4791;8.211027;402.7;NaN;;23.402;;0 / 2;1216;2022-09-27 20:14:52:007
-2.01211;1.07586;7.13339;-2.03038;1.40333;9.49097;1.09906;-0.19641;0.81564;-1.40191;0.01228;-0.2883;23.8;24.818;2.91;-39.09;305.274;-20.721;1.694;5.0;48.4935;47.4791;8.211027;402.7;NaN;;23.402;;0 / 2;1227;2022-09-27 20:14:52:018
-2.01211;1.07586;7.13339;-2.03038;1.40333;9.49097;1.09527;1.28314;-0.91105;-0.93928;1.00952;-0.01696;23.8;24.818;2.91;-39.09;305.274;-20.721;1.694;5.0;48.4935;47.4791;8.211027;402.7;NaN;;23.402;;0 / 2;1237;2022-09-27 20:14:52:028
-2.01211;1.07586;7.13339;-2.03038;1.40333;9.49097;1.09527;1.28314;-0.91105;-0.93928;1.00952;-0.01696;23.8;24.818;2.91;-39.09;305.274;-20.721;1.694;5.0;48.4935;47.4791;8.211027;402.7;NaN;;23.402;;0 / 2;1247;2022-09-27 20:14:52:038
-2.01211;1.07586;7.13339;-2.03038;1.40333;9.49097;1.09527;1.28314;-0.91105;-0.93928;1.00952;-0.01696;23.8;24.818;2.91;-39.09;305.274;-20.721;1.694;5.0;48.4935;47.4791;8.211027;402.7;NaN;;23.402;;0 / 2;1257;2022-09-27 20:14:52:048
-2.01211;1.07586;7.13339;-2.03038;1.40333;9.49097;1.09527;1.28314;-0.91105;-0.93928;1.00952;-0.01696;23.8;32.8;7.634;-38.645;305.274;-20.721;1.694;5.0;48.4935;47.4791;8.211027;402.7;NaN;;23.402;;0 / 2;1267;2022-09-27 20:14:52:058
-3.90933;0.61353;6.82917;-3.5951;0.21479;9.12138;1.09527;1.28314;-0.91105;-0.93928;1.00952;-0.01696;21.6;32.8;7.634;-38.645;305.274;-20.721;1.694;5.0;49.4448;47.4791;8.211027;402.7;NaN;;23.402;;0 / 4;1288;2022-09-27 20:14:52:079
-3.90933;0.61353;6.82917;-3.5951;0.21479;9.12138;1.09527;1.28314;-0.91105;-0.93928;1.00952;-0.01696;21.6;32.8;7.634;-38.645;305.274;-20.721;1.694;5.0;49.4448;47.4791;8.211027;402.7;NaN;;23.402;;0 / 4;1289;2022-09-27 20:14:52:080
-3.90933;0.61353;6.82917;-3.5951;0.21479;9.12138;1.09527;1.28314;-0.91105;-0.93928;1.00952;-0.01696;21.6;32.8;7.634;-38.645;305.274;-20.721;1.694;5.0;49.4448;47.4791;8.211027;402.7;NaN;;23.402;;0 / 4;1297;2022-09-27 20:14:52:088
-3.90933;0.61353;6.82917;-3.5951;0.21479;9.12138;1.09527;1.28314;-0.91105;-0.93928;1.00952;-0.01696;21.6;32.8;7.634;-38.645;305.274;-20.721;1.694;5.0;49.4448;47.4791;8.211027;402.7;NaN;;23.402;;0 / 4;1307;2022-09-27 20:14:52:098
-3.90933;0.61353;6.82917;-3.5951;0.21479;9.12138;1.09527;1.28314;-0.91105;-0.93928;1.00952;-0.01696;21.6;32.8;7.634;-38.645;305.274;-20.721;1.694;5.0;49.4448;47.4791;8.211027;402.7;NaN;;23.402;;0 / 4;1317;2022-09-27 20:14:52:108
-3.90933;0.61353;6.82917;-3.5951;0.21479;9.12138;1.09527;1.28314;-0.91105;-0.93928;1.00952;-0.01696;21.6;32.8;7.634;-38.645;305.274;-20.721;1.694;5.0;49.4448;47.4791;8.211027;402.7;NaN;;23.402;;0 / 4;1326;2022-09-27 20:14:52:117
-3.90933;0.61353;6.82917;-3.5951;0.21479;9.12138;1.09527;1.28314;-0.91105;-0.93928;1.00952;-0.01696;21.6;32.8;7.634;-38.645;305.274;-20.721;1.694;5.0;49.4448;47.4791;8.211027;402.7;NaN;;23.402;;0 / 4;1338;2022-09-27 20:14:52:129
-3.90933;0.61353;6.82917;-3.5951;0.21479;9.12138;1.09527;1.28314;-0.91105;-0.93928;1.00952;-0.01696;21.6;32.8;7.634;-38.645;305.274;-20.721;1.694;5.0;49.4448;47.4791;8.211027;402.7;NaN;;23.402;;0 / 4;1347;2022-09-27 20:14:52:138
-3.90933;0.61353;6.82917;-3.5951;0.21479;9.12138;1.09527;1.28314;-0.91105;-0.93928;1.00952;-0.01696;21.6;32.8;7.634;-38.645;305.274;-20.721;1.694;5.0;49.4448;47.4791;8.211027;402.7;NaN;;23.402;;0 / 4;1356;2022-09-27 20:14:52:147
-3.90933;0.61353;6.82917;-3.5951;0.21479;9.12138;1.09527;1.28314;-0.91105;-0.93928;1.00952;-0.01696;21.6;32.8;7.634;-38.645;305.274;-20.721;1.694;5.0;49.4448;47.4791;8.211027;402.7;NaN;;23.402;;0 / 4;1367;2022-09-27 20:14:52:158
-3.26973;-0.02606;8.99707;-3.5951;0.21479;9.12138;0.27292;1.12283;0.1646;-0.04339;-0.36848;0.13948;21.6;32.8;7.634;-38.645;305.274;-20.721;1.694;5.0;49.4448;47.4791;8.211027;402.7;NaN;;23.402;;0 / 4;1377;2022-09-27 20:14:52:168
-3.26973;-0.02606;8.99707;-3.5951;0.21479;9.12138;0.27292;1.12283;0.1646;-0.04339;-0.36848;0.13948;21.6;32.8;7.634;-38.645;305.274;-20.721;1.694;5.0;49.4448;47.4791;8.211027;402.7;NaN;;23.402;;0 / 4;1386;2022-09-27 20:14:52:177
-3.26973;-0.02606;8.99707;-3.5951;0.21479;9.12138;0.27292;1.12283;0.1646;-0.04339;-0.36848;0.13948;21.6;32.8;7.634;-38.645;305.274;-20.721;1.694;5.0;49.4448;47.4791;8.211027;402.7;NaN;;23.402;;0 / 4;1397;2022-09-27 20:14:52:188
-3.26973;-0.02606;8.99707;-3.5951;0.21479;9.12138;0.27292;1.12283;0.1646;-0.04339;-0.36848;0.13948;21.6;32.8;7.634;-38.645;305.274;-20.721;1.694;5.0;49.4448;47.4791;8.211027;402.7;NaN;;23.402;;0 / 4;1407;2022-09-27 20:14:52:198
-3.26973;-0.02606;8.99707;-3.5951;0.21479;9.12138;0.27292;1.12283;0.1646;-0.04339;-0.36848;0.13948;21.6;34.914;4.14;-37.035;284.844;-1.255;21.511;5.0;49.4448;47.4791;8.211027;402.7;NaN;;23.402;;0 / 4;1416;2022-09-27 20:14:52:207
-3.26973;-0.02606;8.99707;-3.5951;0.21479;9.12138;0.27292;1.12283;0.1646;-0.04339;-0.36848;0.13948;21.6;34.914;4.14;-37.035;284.844;-1.255;21.511;5.0;49.4448;47.4791;8.211027;402.7;NaN;;23.402;;0 / 4;1427;2022-09-27 20:14:52:218
-3.26973;-0.02606;8.99707;-3.98607;-0.00305;8.96;0.27292;1.12283;0.1646;-0.04339;-0.36848;0.13948;21.6;34.914;4.14;-37.035;284.844;-1.255;21.511;5.0;49.4448;47.4791;8.211027;402.7;NaN;;23.402;;0 / 4;1437;2022-09-27 20:14:52:228
-3.26973;-0.02606;8.99707;-3.98607;-0.00305;8.96;0.27292;1.12283;0.1646;-0.04339;-0.36848;0.13948;21.6;34.914;4.14;-37.035;284.844;-1.255;21.511;5.0;49.4448;47.4791;8.211027;402.7;NaN;;23.402;;0 / 4;1446;2022-09-27 20:14:52:237
-3.26973;-0.02606;8.99707;-3.98607;-0.00305;8.96;0.27292;1.12283;0.1646;-0.04339;-0.36848;0.13948;21.6;34.914;4.14;-37.035;284.844;-1.255;21.511;5.0;49.4448;47.4791;8.211027;402.7;NaN;;23.402;;0 / 4;1457;2022-09-27 20:14:52:248
-3.26973;-0.02606;8.99707;-3.98607;-0.00305;8.96;0.27292;1.12283;0.1646;-0.04339;-0.36848;0.13948;21.6;34.914;4.14;-37.035;284.844;-1.255;21.511;5.0;49.4448;47.4791;8.211027;402.7;NaN;;23.402;;0 / 4;1467;2022-09-27 20:14:52:258
-3.26973;-0.02606;8.99707;-3.98607;-0.00305;8.96;0.27292;1.12283;0.1646;-0.04339;-0.36848;0.13948;21.6;34.914;4.14;-37.035;284.844;-1.255;21.511;5.0;49.4448;47.4791;8.211027;402.7;NaN;;23.402;;0 / 4;1476;2022-09-27 20:14:52:267
-3.26973;-0.02606;8.99707;-3.98607;-0.00305;8.96;0.27292;1.12283;0.1646;-0.04339;-0.36848;0.13948;21.6;34.914;4.14;-37.035;284.844;-1.255;21.511;5.0;49.4448;47.4791;8.211027;402.7;NaN;;23.402;;0 / 4;1487;2022-09-27 20:14:52:278
-3.26973;-0.02606;8.99707;-3.98607;-0.00305;8.96;0.27292;1.12283;0.1646;-0.04339;-0.36848;0.13948;21.6;34.914;4.14;-37.035;284.844;-1.255;21.511;5.0;49.4448;47.4791;8.211027;402.7;NaN;;23.402;;0 / 4;1497;2022-09-27 20:14:52:288
-3.78955;-0.92437;8.74315;-3.98607;-0.00305;8.96;-0.27117;-0.40417;-0.13075;-0.20486;-1.16332;0.48752;21.6;34.914;4.14;-37.035;284.844;-1.255;21.511;5.0;49.4448;47.4791;8.211027;402.7;NaN;;23.402;;0 / 4;1506;2022-09-27 20:14:52:297
-3.78955;-0.92437;8.74315;-3.98607;-0.00305;8.96;-0.27117;-0.40417;-0.13075;-0.20486;-1.16332;0.48752;21.6;34.914;4.14;-37.035;284.844;-1.255;21.511;5.0;49.4448;47.4791;8.211027;402.7;NaN;;23.402;;0 / 4;1517;2022-09-27 20:14:52:308
-3.78955;-0.92437;8.74315;-3.98607;-0.00305;8.96;-0.27117;-0.40417;-0.13075;-0.20486;-1.16332;0.48752;21.6;34.914;4.14;-37.035;284.844;-1.255;21.511;5.0;49.4448;47.4791;8.211027;402.7;NaN;;23.402;;0 / 4;1527;2022-09-27 20:14:52:318
-3.78955;-0.92437;8.74315;-3.98607;-0.00305;8.96;-0.27117;-0.40417;-0.13075;-0.20486;-1.16332;0.48752;21.6;34.914;4.14;-37.035;284.844;-1.255;21.511;5.0;49.4448;47.4791;8.211027;402.7;NaN;;23.402;;0 / 4;1537;2022-09-27 20:14:52:328
-3.78955;-0.92437;8.74315;-3.98607;-0.00305;8.96;-0.27117;-0.40417;-0.13075;-0.20486;-1.16332;0.48752;21.6;34.914;4.14;-37.035;284.844;-1.255;21.511;5.0;49.4448;47.4791;8.211027;402.7;NaN;;23.402;;0 / 4;1546;2022-09-27 20:14:52:337
-3.78955;-0.92437;8.74315;-3.98607;-0.00305;8.96;-0.27117;-0.40417;-0.13075;-0.20486;-1.16332;0.48752;21.6;34.914;4.14;-37.035;284.844;-1.255;21.511;5.0;49.4448;47.4791;8.211027;402.7;NaN;;23.402;;0 / 4;1557;2022-09-27 20:14:52:348
-3.78955;-0.92437;8.74315;-3.98607;-0.00305;8.96;-0.27117;-0.40417;-0.13075;-0.20486;-1.16332;0.48752;21.6;29.88;5.646;-41.295;299.117;0.018;23.983;5.0;49.4448;47.4791;8.211027;402.7;NaN;;23.402;;0 / 4;1567;2022-09-27 20:14:52:358
-3.78955;-0.92437;8.74315;-3.61955;0.14026;9.11315;-0.27117;-0.40417;-0.13075;-0.20486;-1.16332;0.48752;21.6;29.88;5.646;-41.295;299.117;0.018;23.983;5.0;49.4448;47.4791;8.211027;402.7;NaN;;23.402;;0 / 4;1577;2022-09-27 20:14:52:368
-3.78955;-0.92437;8.74315;-3.61955;0.14026;9.11315;-0.27117;-0.40417;-0.13075;-0.20486;-1.16332;0.48752;21.6;29.88;5.646;-41.295;299.117;0.018;23.983;5.0;49.4448;47.4791;8.211027;402.7;NaN;;23.402;;0 / 4;1586;2022-09-27 20:14:52:377
-3.78955;-0.92437;8.74315;-3.61955;0.14026;9.11315;-0.27117;-0.40417;-0.13075;-0.20486;-1.16332;0.48752;21.6;29.88;5.646;-41.295;299.117;0.018;23.983;5.0;52.8687;47.4791;8.211027;402.7;NaN;;23.402;;0 / 4;1596;2022-09-27 20:14:52:387
-3.78955;-0.92437;8.74315;-3.61955;0.14026;9.11315;-0.27117;-0.40417;-0.13075;-0.20486;-1.16332;0.48752;21.6;29.88;5.646;-41.295;299.117;0.018;23.983;5.0;52.8687;47.4791;8.211027;402.7;NaN;;23.402;;0 / 4;1607;2022-09-27 20:14:52:398
-3.78955;-0.92437;8.74315;-3.61955;0.14026;9.11315;-0.27117;-0.40417;-0.13075;-0.20486;-1.16332;0.48752;21.6;29.88;5.646;-41.295;299.117;0.018;23.983;5.0;52.8687;47.4791;8.211027;402.7;NaN;;23.402;;0 / 4;1617;2022-09-27 20:14:52:408
-3.78955;-0.92437;8.74315;-3.61955;0.14026;9.11315;-0.27117;-0.40417;-0.13075;-0.20486;-1.16332;0.48752;21.6;29.88;5.646;-41.295;299.117;0.018;23.983;5.0;52.8687;47.4791;8.211027;402.7;NaN;;23.402;;0 / 4;1627;2022-09-27 20:14:52:418
-2.79303;-0.08595;9.20788;-3.61955;0.14026;9.11315;-0.99393;0.14293;-0.22252;-0.20486;-1.16332;0.48752;21.6;29.88;5.646;-41.295;299.117;0.018;23.983;5.0;52.8687;47.4791;8.211027;402.7;NaN;;23.402;;0 / 4;1637;2022-09-27 20:14:52:428
-2.79303;-0.08595;9.20788;-3.61955;0.14026;9.11315;-0.99393;0.14293;-0.22252;-0.20486;-1.16332;0.48752;21.6;29.88;5.646;-41.295;299.117;0.018;23.983;5.0;52.8687;47.4791;8.211027;402.7;NaN;;23.402;;0 / 4;1647;2022-09-27 20:14:52:438
-2.79303;-0.08595;9.20788;-3.61955;0.14026;9.11315;-0.99393;0.14293;-0.22252;-0.10153;-1.05055;0.47108;21.6;29.88;5.646;-41.295;299.117;0.018;23.983;5.0;52.8687;47.4791;8.211027;402.7;NaN;;23.402;;0 / 4;1657;2022-09-27 20:14:52:448
-2.79303;-0.08595;9.20788;-3.61955;0.14026;9.11315;-0.99393;0.14293;-0.22252;-0.10153;-1.05055;0.47108;21.6;29.88;5.646;-41.295;299.117;0.018;23.983;5.0;52.8687;47.4791;8.211027;402.7;NaN;;23.402;;0 / 4;1667;2022-09-27 20:14:52:458
-2.79303;-0.08595;9.20788;-3.61955;0.14026;9.11315;-0.99393;0.14293;-0.22252;-0.10153;-1.05055;0.47108;21.6;29.88;5.646;-41.295;299.117;0.018;23.983;5.0;52.8687;47.4791;8.211027;402.7;NaN;;23.402;;0 / 4;1677;2022-09-27 20:14:52:468
-2.79303;-0.08595;9.20788;-3.61955;0.14026;9.11315;-0.99393;0.14293;-0.22252;-0.10153;-1.05055;0.47108;21.6;29.88;5.646;-41.295;299.117;0.018;23.983;5.0;52.8687;47.4791;8.211027;402.7;NaN;;23.402;;0 / 4;1686;2022-09-27 20:14:52:477
-2.79303;-0.08595;9.20788;-3.61955;0.14026;9.11315;-0.99393;0.14293;-0.22252;-0.10153;-1.05055;0.47108;21.6;29.88;5.646;-41.295;299.117;0.018;23.983;5.0;52.8687;47.4791;8.211027;402.7;NaN;;23.402;;0 / 4;1696;2022-09-27 20:14:52:487
-2.79303;-0.08595;9.20788;-1.91988;0.12668;9.61605;-0.99393;0.14293;-0.22252;-0.10153;-1.05055;0.47108;21.6;29.88;5.646;-41.295;299.117;0.018;23.983;5.0;52.8687;47.4791;8.211027;402.7;NaN;;23.402;;0 / 4;1707;2022-09-27 20:14:52:498
-2.79303;-0.08595;9.20788;-1.91988;0.12668;9.61605;-0.99393;0.14293;-0.22252;-0.10153;-1.05055;0.47108;21.6;29.88;5.646;-41.295;299.117;0.018;23.983;5.0;52.8687;47.4791;8.211027;402.7;NaN;;23.402;;0 / 4;1717;2022-09-27 20:14:52:508
-2.79303;-0.08595;9.20788;-1.91988;0.12668;9.61605;-0.99393;0.14293;-0.22252;-0.10153;-1.05055;0.47108;21.6;29.88;5.646;-41.295;299.117;0.018;23.983;5.0;52.8687;47.4791;8.211027;402.7;NaN;;23.402;;0 / 4;1727;2022-09-27 20:14:52:518
-2.79303;-0.08595;9.20788;-1.91988;0.12668;9.61605;-0.99393;0.14293;-0.22252;-0.10153;-1.05055;0.47108;24.6;29.88;5.646;-41.295;299.117;0.018;23.983;5.0;52.8687;47.4791;8.211027;402.7;NaN;;23.402;;0 / 4;1737;2022-09-27 20:14:52:528
-2.79303;-0.08595;9.20788;-1.91988;0.12668;9.61605;-0.99393;0.14293;-0.22252;-0.10153;-1.05055;0.47108;24.6;29.88;5.646;-41.295;299.117;0.018;23.983;5.0;52.8687;47.4791;8.211027;402.7;NaN;;23.402;;0 / 4;1747;2022-09-27 20:14:52:538
-2.79303;-0.08595;9.20788;-1.91988;0.12668;9.61605;-0.99393;0.14293;-0.22252;-0.10153;-1.05055;0.47108;24.6;29.88;5.646;-41.295;299.117;0.018;23.983;5.0;52.8687;47.4791;8.211027;402.7;NaN;;23.402;;0 / 4;1757;2022-09-27 20:14:52:548
-2.79303;-0.08595;9.20788;-1.91988;0.12668;9.61605;-0.99393;0.14293;-0.22252;-0.10153;-1.05055;0.47108;24.6;15.324;5.431;-50.192;319.054;-0.74;11.291;5.0;52.8687;47.4791;8.211027;402.7;NaN;;23.402;;0 / 4;1767;2022-09-27 20:14:52:558
-0.25383;0.19911;10.78171;-1.91988;0.12668;9.61605;-1.31094;-0.02538;-0.20145;-0.10153;-1.05055;0.47108;24.6;15.324;5.431;-50.192;319.054;-0.74;11.291;5.0;52.8687;47.4791;8.211027;402.7;NaN;;23.402;;0 / 4;1777;2022-09-27 20:14:52:568
-0.25383;0.19911;10.78171;-1.91988;0.12668;9.61605;-1.31094;-0.02538;-0.20145;-0.02574;0.00147;-0.00479;24.6;15.324;5.431;-50.192;319.054;-0.74;11.291;5.0;52.8687;47.4791;8.211027;402.7;NaN;;23.402;;0 / 4;1787;2022-09-27 20:14:52:578
-0.25383;0.19911;10.78171;-1.91988;0.12668;9.61605;-1.31094;-0.02538;-0.20145;-0.02574;0.00147;-0.00479;24.6;15.324;5.431;-50.192;319.054;-0.74;11.291;5.0;52.8687;47.4791;8.211027;402.7;NaN;;23.402;;0 / 4;1797;2022-09-27 20:14:52:588
-0.25383;0.19911;10.78171;-1.91988;0.12668;9.61605;-1.31094;-0.02538;-0.20145;-0.02574;0.00147;-0.00479;24.6;15.324;5.431;-50.192;319.054;-0.74;11.291;5.0;52.8687;47.4791;8.211027;402.7;NaN;;23.402;;0 / 4;1808;2022-09-27 20:14:52:599
-0.25383;0.19911;10.78171;-1.91988;0.12668;9.61605;-1.31094;-0.02538;-0.20145;-0.02574;0.00147;-0.00479;24.6;15.324;5.431;-50.192;319.054;-0.74;11.291;5.0;52.8687;47.4791;8.211027;402.7;NaN;;23.402;;0 / 4;1816;2022-09-27 20:14:52:607
-0.25383;0.19911;10.78171;-1.91988;0.12668;9.61605;-1.31094;-0.02538;-0.20145;-0.02574;0.00147;-0.00479;24.6;15.324;5.431;-50.192;319.054;-0.74;11.291;5.0;52.8687;47.4791;8.211027;402.7;NaN;;23.402;;0 / 4;1827;2022-09-27 20:14:52:618
-0.25383;0.19911;10.78171;-1.91988;0.12668;9.61605;-1.31094;-0.02538;-0.20145;-0.02574;0.00147;-0.00479;24.6;15.324;5.431;-50.192;319.054;-0.74;11.291;5.0;52.8687;47.4791;8.211027;402.7;NaN;;23.402;;0 / 4;1837;2022-09-27 20:14:52:628
-0.25383;0.19911;10.78171;0.06876;0.09758;9.80592;-1.31094;-0.02538;-0.20145;-0.02574;0.00147;-0.00479;24.6;15.324;5.431;-50.192;319.054;-0.74;11.291;5.0;52.8687;47.4791;8.211027;402.7;NaN;;23.402;;0 / 4;1847;2022-09-27 20:14:52:638
-0.25383;0.19911;10.78171;0.06876;0.09758;9.80592;-1.31094;-0.02538;-0.20145;-0.02574;0.00147;-0.00479;24.6;15.324;5.431;-50.192;319.054;-0.74;11.291;5.0;52.8687;47.4791;8.211027;402.7;NaN;;23.402;;0 / 4;1856;2022-09-27 20:14:52:647
-0.25383;0.19911;10.78171;0.06876;0.09758;9.80592;-1.31094;-0.02538;-0.20145;-0.02574;0.00147;-0.00479;24.6;15.324;5.431;-50.192;319.054;-0.74;11.291;5.0;52.8687;47.4791;8.211027;402.7;NaN;;23.402;;0 / 4;1867;2022-09-27 20:14:52:658
-0.25383;0.19911;10.78171;0.06876;0.09758;9.80592;-1.31094;-0.02538;-0.20145;-0.02574;0.00147;-0.00479;24.6;15.324;5.431;-50.192;319.054;-0.74;11.291;5.0;52.8687;47.4791;8.211027;402.7;NaN;;23.402;;0 / 4;1877;2022-09-27 20:14:52:668
-0.25383;0.19911;10.78171;0.06876;0.09758;9.80592;-1.31094;-0.02538;-0.20145;-0.02574;0.00147;-0.00479;24.6;15.324;5.431;-50.192;319.054;-0.74;11.291;5.0;52.8687;47.4791;8.211027;402.7;NaN;;23.402;;0 / 4;1887;2022-09-27 20:14:52:678
-0.25383;0.19911;10.78171;0.06876;0.09758;9.80592;-1.31094;-0.02538;-0.20145;-0.02574;0.00147;-0.00479;24.6;15.324;5.431;-50.192;319.054;-0.74;11.291;5.0;52.8687;47.4791;8.211027;402.7;NaN;;23.402;;0 / 4;1897;2022-09-27 20:14:52:688
-0.06219;2.9E-4;9.81872;0.06876;0.09758;9.80592;-0.13276;-0.09444;0.00351;-1.8E-4;8.6E-4;2.4E-4;24.6;15.324;5.431;-50.192;319.054;-0.74;11.291;5.0;52.8687;47.4791;8.211027;402.7;NaN;;23.402;;0 / 4;1906;2022-09-27 20:14:52:697
-0.06219;2.9E-4;9.81872;0.06876;0.09758;9.80592;-0.13276;-0.09444;0.00351;-1.8E-4;8.6E-4;2.4E-4;24.6;15.324;5.431;-50.192;319.054;-0.74;11.291;5.0;57.716;47.4791;8.211027;402.7;NaN;;23.402;;0 / 4;1917;2022-09-27 20:14:52:708
-0.06219;2.9E-4;9.81872;0.06876;0.09758;9.80592;-0.13276;-0.09444;0.00351;-1.8E-4;8.6E-4;2.4E-4;24.6;15.324;5.431;-50.192;319.054;-0.74;11.291;5.0;57.716;47.4791;8.211027;402.7;NaN;;23.402;;0 / 4;1927;2022-09-27 20:14:52:718
-0.06219;2.9E-4;9.81872;0.06876;0.09758;9.80592;-0.13276;-0.09444;0.00351;-1.8E-4;8.6E-4;2.4E-4;24.6;15.324;5.431;-50.192;319.054;-0.74;11.291;5.0;57.716;47.4791;8.211027;402.7;NaN;;23.402;;0 / 4;1937;2022-09-27 20:14:52:728
-0.06219;2.9E-4;9.81872;0.06876;0.09758;9.80592;-0.13276;-0.09444;0.00351;-1.8E-4;8.6E-4;2.4E-4;24.6;15.324;5.431;-50.192;319.054;-0.74;11.291;5.0;57.716;47.4791;8.211027;402.7;NaN;;23.402;;0 / 4;1947;2022-09-27 20:14:52:738
-0.06219;2.9E-4;9.81872;0.06876;0.09758;9.80592;-0.13276;-0.09444;0.00351;-1.8E-4;8.6E-4;2.4E-4;24.6;15.324;5.431;-50.192;319.054;-0.74;11.291;5.0;57.716;47.4791;8.211027;402.7;NaN;;23.402;;0 / 4;1957;2022-09-27 20:14:52:748
-0.06219;2.9E-4;9.81872;0.06876;0.09758;9.80592;-0.13276;-0.09444;0.00351;-1.8E-4;8.6E-4;2.4E-4;24.6;14.36;4.763;-49.871;290.957;-0.57;-0.402;5.0;57.716;47.4791;8.211027;402.7;NaN;;23.402;;0 / 4;1967;2022-09-27 20:14:52:758
-0.06219;2.9E-4;9.81872;0.06479;0.09372;9.80599;-0.13276;-0.09444;0.00351;-1.8E-4;8.6E-4;2.4E-4;24.6;14.36;4.763;-49.871;290.957;-0.57;-0.402;5.0;57.716;47.4791;8.211027;402.7;NaN;;23.402;;0 / 4;1977;2022-09-27 20:14:52:768
-0.06219;2.9E-4;9.81872;0.06479;0.09372;9.80599;-0.13276;-0.09444;0.00351;-1.8E-4;8.6E-4;2.4E-4;24.6;14.36;4.763;-49.871;290.957;-0.57;-0.402;5.0;57.716;47.4791;8.211027;402.7;NaN;;23.402;;0 / 4;1988;2022-09-27 20:14:52:779
-0.06219;2.9E-4;9.81872;0.06479;0.09372;9.80599;-0.13276;-0.09444;0.00351;-1.8E-4;8.6E-4;2.4E-4;24.6;14.36;4.763;-49.871;290.957;-0.57;-0.402;5.0;57.716;47.4791;8.211027;402.7;NaN;;23.402;;0 / 4;1997;2022-09-27 20:14:52:788
-0.06219;2.9E-4;9.81872;0.06479;0.09372;9.80599;-0.13276;-0.09444;0.00351;-1.8E-4;8.6E-4;2.4E-4;24.6;14.36;4.763;-49.871;290.957;-0.57;-0.402;5.0;57.716;47.4791;8.211027;402.7;NaN;;23.402;;0 / 4;2007;2022-09-27 20:14:52:798
-0.06219;2.9E-4;9.81872;0.06479;0.09372;9.80599;-0.13276;-0.09444;0.00351;-1.8E-4;8.6E-4;2.4E-4;24.6;14.36;4.763;-49.871;290.957;-0.57;-0.402;5.0;57.716;47.4791;8.211027;402.7;NaN;;23.402;;0 / 4;2017;2022-09-27 20:14:52:808
-0.06219;2.9E-4;9.81872;0.06479;0.09372;9.80599;-0.13276;-0.09444;0.00351;-1.8E-4;8.6E-4;2.4E-4;24.6;14.36;4.763;-49.871;290.957;-0.57;-0.402;5.0;57.716;47.4791;8.211027;402.7;NaN;;23.402;;0 / 4;2026;2022-09-27 20:14:52:817
-0.06937;-0.00211;9.81633;0.06479;0.09372;9.80599;-0.13145;-0.08997;0.00267;-2.0E-5;0.00101;2.4E-4;24.6;14.36;4.763;-49.871;290.957;-0.57;-0.402;5.0;57.716;47.4791;8.211027;402.7;NaN;;23.402;;0 / 4;2037;2022-09-27 20:14:52:828
-0.06937;-0.00211;9.81633;0.06479;0.09372;9.80599;-0.13145;-0.08997;0.00267;-2.0E-5;0.00101;2.4E-4;24.6;14.36;4.763;-49.871;290.957;-0.57;-0.402;5.0;57.716;47.4791;8.211027;402.7;NaN;;23.402;;0 / 4;2047;2022-09-27 20:14:52:838
-0.06937;-0.00211;9.81633;0.06479;0.09372;9.80599;-0.13145;-0.08997;0.00267;-2.0E-5;0.00101;2.4E-4;24.6;14.36;4.763;-49.871;290.957;-0.57;-0.402;5.0;57.716;47.4791;8.211027;402.7;NaN;;23.402;;0 / 4;2057;2022-09-27 20:14:52:848
-0.06937;-0.00211;9.81633;0.06479;0.09372;9.80599;-0.13145;-0.08997;0.00267;-2.0E-5;0.00101;2.4E-4;24.6;14.36;4.763;-49.871;290.957;-0.57;-0.402;5.0;57.716;47.4791;8.211027;402.7;NaN;;23.402;;0 / 4;2067;2022-09-27 20:14:52:858
-0.06937;-0.00211;9.81633;0.06479;0.09372;9.80599;-0.13145;-0.08997;0.00267;-2.0E-5;0.00101;2.4E-4;24.6;14.36;4.763;-49.871;290.957;-0.57;-0.402;5.0;57.716;47.4791;8.211027;402.7;NaN;;23.402;;0 / 4;2076;2022-09-27 20:14:52:867
-0.06937;-0.00211;9.81633;0.06479;0.09372;9.80599;-0.13145;-0.08997;0.00267;-2.0E-5;0.00101;2.4E-4;24.6;14.36;4.763;-49.871;290.957;-0.57;-0.402;5.0;57.716;47.4791;8.211027;402.7;NaN;;23.402;;0 / 4;2087;2022-09-27 20:14:52:878
-0.06937;-0.00211;9.81633;0.06479;0.09372;9.80599;-0.13145;-0.08997;0.00267;-2.0E-5;0.00101;2.4E-4;24.6;14.36;4.763;-49.871;290.957;-0.57;-0.402;5.0;57.716;47.4791;8.211027;402.7;NaN;;23.402;;0 / 4;2097;2022-09-27 20:14:52:888
-0.06937;-0.00211;9.81633;0.06057;0.09032;9.80605;-0.13145;-0.08997;0.00267;-2.0E-5;0.00101;2.4E-4;24.6;14.36;4.763;-49.871;290.957;-0.57;-0.402;5.0;57.716;47.4791;8.211027;402.7;NaN;;23.402;;0 / 4;2107;2022-09-27 20:14:52:898
-0.06937;-0.00211;9.81633;0.06057;0.09032;9.80605;-0.13145;-0.08997;0.00267;-2.0E-5;0.00101;2.4E-4;24.6;14.36;4.763;-49.871;290.957;-0.57;-0.402;5.0;57.716;47.4791;8.211027;402.7;NaN;;23.402;;0 / 4;2117;2022-09-27 20:14:52:908
-0.06937;-0.00211;9.81633;0.06057;0.09032;9.80605;-0.13145;-0.08997;0.00267;-2.0E-5;0.00101;2.4E-4;24.6;14.36;4.763;-49.871;290.957;-0.57;-0.402;5.0;57.716;47.4791;8.211027;402.7;NaN;;23.402;;0 / 4;2127;2022-09-27 20:14:52:918
-0.06937;-0.00211;9.81633;0.06057;0.09032;9.80605;-0.13145;-0.08997;0.00267;-2.0E-5;0.00101;2.4E-4;24.6;14.36;4.763;-49.871;290.957;-0.57;-0.402;5.0;57.716;47.4791;8.211027;402.7;NaN;;23.402;;0 / 4;2137;2022-09-27 20:14:52:928
-0.06937;-0.00211;9.81633;0.06057;0.09032;9.80605;-0.13145;-0.08997;0.00267;-2.0E-5;0.00101;2.4E-4;24.6;14.36;4.763;-49.871;290.957;-0.57;-0.402;5.0;57.716;47.4791;8.211027;402.7;NaN;;23.402;;0 / 4;2147;2022-09-27 20:14:52:938
-0.06937;-0.00211;9.81633;0.06057;0.09032;9.80605;-0.13145;-0.08997;0.00267;-2.0E-5;0.00101;2.4E-4;24.6;14.36;4.763;-49.871;290.957;-0.57;-0.402;5.0;57.716;47.4791;8.211027;402.7;NaN;;23.402;;0 / 4;2157;2022-09-27 20:14:52:948
-0.06937;-0.00211;9.81633;0.06057;0.09032;9.80605;-0.13145;-0.08997;0.00267;-2.0E-5;0.00101;2.4E-4;24.6;15.596;5.932;-50.437;291.607;-0.528;-0.354;5.0;57.716;47.4791;8.211027;402.7;NaN;;23.402;;0 / 4;2167;2022-09-27 20:14:52:958
-0.06458;0.00268;9.80675;0.06057;0.09032;9.80605;-0.12336;-0.0876;-0.00675;4.3E-4;7.1E-4;8.0E-5;24.6;15.596;5.932;-50.437;291.607;-0.528;-0.354;5.0;57.716;47.4791;8.211027;402.7;NaN;;23.402;;0 / 4;2176;2022-09-27 20:14:52:967
-0.06458;0.00268;9.80675;0.06057;0.09032;9.80605;-0.12336;-0.0876;-0.00675;4.3E-4;7.1E-4;8.0E-5;24.6;15.596;5.932;-50.437;291.607;-0.528;-0.354;5.0;57.716;47.4791;8.211027;402.7;NaN;;23.402;;0 / 4;2187;2022-09-27 20:14:52:978
-0.06458;0.00268;9.80675;0.06057;0.09032;9.80605;-0.12336;-0.0876;-0.00675;4.3E-4;7.1E-4;8.0E-5;24.6;15.596;5.932;-50.437;291.607;-0.528;-0.354;5.0;57.716;47.4791;8.211027;402.7;NaN;;23.402;;0 / 4;2197;2022-09-27 20:14:52:988
-0.06458;0.00268;9.80675;0.06057;0.09032;9.80605;-0.12336;-0.0876;-0.00675;4.3E-4;7.1E-4;8.0E-5;24.6;15.596;5.932;-50.437;291.607;-0.528;-0.354;5.0;57.716;47.4791;8.211027;402.7;NaN;;23.402;;0 / 4;2207;2022-09-27 20:14:52:998
-0.06458;0.00268;9.80675;0.06057;0.09032;9.80605;-0.12336;-0.0876;-0.00675;4.3E-4;7.1E-4;8.0E-5;24.6;15.596;5.932;-50.437;291.607;-0.528;-0.354;5.0;57.716;47.4791;8.211027;402.7;NaN;;23.402;;0 / 4;2217;2022-09-27 20:14:53:008
-0.06458;0.00268;9.80675;0.06057;0.09032;9.80605;-0.12336;-0.0876;-0.00675;4.3E-4;7.1E-4;8.0E-5;24.6;15.596;5.932;-50.437;291.607;-0.528;-0.354;5.0;57.716;47.4791;8.211027;402.7;NaN;;23.402;;0 / 4;2228;2022-09-27 20:14:53:019
-0.06458;0.00268;9.80675;0.06057;0.09032;9.80605;-0.12336;-0.0876;-0.00675;4.3E-4;7.1E-4;8.0E-5;24.6;15.596;5.932;-50.437;291.607;-0.528;-0.354;5.0;57.716;47.4791;8.211027;402.7;NaN;;23.402;;0 / 4;2237;2022-09-27 20:14:53:028
-0.06458;0.00268;9.80675;0.0451;0.07896;9.80623;-0.12336;-0.0876;-0.00675;4.3E-4;7.1E-4;8.0E-5;24.6;15.596;5.932;-50.437;291.607;-0.528;-0.354;5.0;50.3254;47.4791;8.211027;402.7;NaN;;23.402;;0 / 4;2247;2022-09-27 20:14:53:038
-0.06458;0.00268;9.80675;0.0451;0.07896;9.80623;-0.12336;-0.0876;-0.00675;4.3E-4;7.1E-4;8.0E-5;24.6;15.596;5.932;-50.437;291.607;-0.528;-0.354;5.0;50.3254;47.4791;8.211027;402.7;NaN;;23.402;;0 / 4;2257;2022-09-27 20:14:53:048
-0.06458;0.00268;9.80675;0.0451;0.07896;9.80623;-0.12336;-0.0876;-0.00675;4.3E-4;7.1E-4;8.0E-5;24.6;15.596;5.932;-50.437;291.607;-0.528;-0.354;5.0;50.3254;47.4791;8.211027;402.7;NaN;;23.402;;0 / 4;2267;2022-09-27 20:14:53:058
-0.06458;0.00268;9.80675;0.0451;0.07896;9.80623;-0.12336;-0.0876;-0.00675;4.3E-4;7.1E-4;8.0E-5;24.6;15.596;5.932;-50.437;291.607;-0.528;-0.354;5.0;50.3254;47.4791;8.211027;402.7;NaN;;23.402;;0 / 4;2277;2022-09-27 20:14:53:068
-0.06458;-0.00211;9.80435;0.0451;0.07896;9.80623;-0.12336;-0.0876;-0.00675;2.8E-4;8.6E-4;3.9E-4;24.6;15.596;5.932;-50.437;291.607;-0.528;-0.354;5.0;50.3254;47.4791;8.211027;402.7;NaN;;23.402;;0 / 4;2287;2022-09-27 20:14:53:078
-0.06458;-0.00211;9.80435;0.0451;0.07896;9.80623;-0.12336;-0.0876;-0.00675;2.8E-4;8.6E-4;3.9E-4;24.6;15.596;5.932;-50.437;291.607;-0.528;-0.354;5.0;50.3254;47.4791;8.211027;402.7;NaN;;23.402;;0 / 4;2296;2022-09-27 20:14:53:087
-0.06458;-0.00211;9.80435;0.0451;0.07896;9.80623;-0.12336;-0.0876;-0.00675;2.8E-4;8.6E-4;3.9E-4;24.6;15.596;5.932;-50.437;291.607;-0.528;-0.354;5.0;50.3254;47.4791;8.211027;402.7;NaN;;23.402;;0 / 4;2308;2022-09-27 20:14:53:099
-0.06458;-0.00211;9.80435;0.0451;0.07896;9.80623;-0.09878;-0.07029;-0.00844;2.8E-4;8.6E-4;3.9E-4;24.6;15.596;5.932;-50.437;291.607;-0.528;-0.354;5.0;50.3254;47.4791;8.211027;402.7;NaN;;23.402;;0 / 4;2318;2022-09-27 20:14:53:109
-0.06458;-0.00211;9.80435;0.0451;0.07896;9.80623;-0.09878;-0.07029;-0.00844;2.8E-4;8.6E-4;3.9E-4;24.6;15.596;5.932;-50.437;291.607;-0.528;-0.354;5.0;50.3254;47.4791;8.211027;402.7;NaN;;23.402;;0 / 4;2326;2022-09-27 20:14:53:117
-0.06458;-0.00211;9.80435;0.0451;0.07896;9.80623;-0.09878;-0.07029;-0.00844;2.8E-4;8.6E-4;3.9E-4;24.6;15.596;5.932;-50.437;291.607;-0.528;-0.354;5.0;50.3254;47.4791;8.211027;402.7;NaN;;23.402;;0 / 4;2337;2022-09-27 20:14:53:128
-0.06458;-0.00211;9.80435;0.0451;0.07896;9.80623;-0.09878;-0.07029;-0.00844;2.8E-4;8.6E-4;3.9E-4;24.6;15.596;5.932;-50.437;291.607;-0.528;-0.354;5.0;50.3254;47.4791;8.211027;402.7;NaN;;23.402;;0 / 4;2347;2022-09-27 20:14:53:138
-0.06458;-0.00211;9.80435;0.0451;0.07896;9.80623;-0.09878;-0.07029;-0.00844;2.8E-4;8.6E-4;3.9E-4;24.6;15.596;5.932;-50.437;291.607;-0.528;-0.354;5.0;50.3254;47.4791;8.211027;402.7;NaN;;23.402;;0 / 4;2357;2022-09-27 20:14:53:148
-0.06458;-0.00211;9.80435;0.0451;0.07896;9.80623;-0.09878;-0.07029;-0.00844;2.8E-4;8.6E-4;3.9E-4;24.6;15.823;4.896;-50.082;288.409;-0.461;-0.263;5.0;50.3254;47.4791;8.211027;402.7;NaN;;23.402;;0 / 4;2367;2022-09-27 20:14:53:158
-0.06937;0.00268;9.79477;0.0451;0.07896;9.80623;-0.09878;-0.07029;-0.00844;2.8E-4;8.6E-4;3.9E-4;24.6;15.823;4.896;-50.082;288.409;-0.461;-0.263;5.0;50.3254;47.4791;8.211027;402.7;NaN;;23.402;;0 / 4;2376;2022-09-27 20:14:53:167
-0.06937;0.00268;9.79477;0.0451;0.07896;9.80623;-0.09878;-0.07029;-0.00844;2.8E-4;8.6E-4;3.9E-4;24.6;15.823;4.896;-50.082;288.409;-0.461;-0.263;5.0;50.3254;47.4791;8.211027;402.7;NaN;;23.402;;0 / 4;2388;2022-09-27 20:14:53:179
-0.06937;0.00268;9.79477;0.0451;0.07896;9.80623;-0.09878;-0.07029;-0.00844;2.8E-4;8.6E-4;3.9E-4;24.6;15.823;4.896;-50.082;288.409;-0.461;-0.263;5.0;50.3254;47.4791;8.211027;402.7;NaN;;23.402;;0 / 4;2397;2022-09-27 20:14:53:188
-0.06937;0.00268;9.79477;0.0451;0.07896;9.80623;-0.09878;-0.07029;-0.00844;2.8E-4;8.6E-4;3.9E-4;24.6;15.823;4.896;-50.082;288.409;-0.461;-0.263;5.0;50.3254;47.4791;8.211027;402.7;NaN;;23.402;;0 / 4;2407;2022-09-27 20:14:53:198
-0.06937;0.00268;9.79477;0.0451;0.07896;9.80623;-0.09878;-0.07029;-0.00844;2.8E-4;8.6E-4;3.9E-4;24.6;15.823;4.896;-50.082;288.409;-0.461;-0.263;5.0;50.3254;47.4791;8.211027;402.7;NaN;;23.402;;0 / 4;2417;2022-09-27 20:14:53:208
-0.06937;0.00268;9.79477;0.0451;0.07896;9.80623;-0.09878;-0.07029;-0.00844;2.8E-4;8.6E-4;3.9E-4;24.6;15.823;4.896;-50.082;288.409;-0.461;-0.263;5.0;50.3254;47.4791;8.211027;402.7;NaN;;23.402;;0 / 4;2427;2022-09-27 20:14:53:218
-0.06937;0.00268;9.79477;0.02268;0.06185;9.80643;-0.08247;-0.06397;-0.01116;2.8E-4;8.6E-4;3.9E-4;24.6;15.823;4.896;-50.082;288.409;-0.461;-0.263;5.0;50.3254;47.4791;8.211027;402.7;NaN;;23.402;;0 / 4;2436;2022-09-27 20:14:53:227
-0.06937;0.00268;9.79477;0.02268;0.06185;9.80643;-0.08247;-0.06397;-0.01116;2.8E-4;8.6E-4;3.9E-4;24.6;15.823;4.896;-50.082;288.409;-0.461;-0.263;5.0;50.3254;47.4791;8.211027;402.7;NaN;;23.402;;0 / 4;2447;2022-09-27 20:14:53:238
-0.06937;0.00268;9.79477;0.02268;0.06185;9.80643;-0.08247;-0.06397;-0.01116;2.8E-4;8.6E-4;3.9E-4;24.6;15.823;4.896;-50.082;288.409;-0.461;-0.263;5.0;50.3254;47.4791;8.211027;402.7;NaN;;23.402;;0 / 4;2457;2022-09-27 20:14:53:248
-0.06937;0.00268;9.79477;0.02268;0.06185;9.80643;-0.08247;-0.06397;-0.01116;2.8E-4;8.6E-4;3.9E-4;24.6;15.823;4.896;-50.082;288.409;-0.461;-0.263;5.0;50.3254;47.4791;8.211027;402.7;NaN;;23.402;;0 / 4;2467;2022-09-27 20:14:53:258
-0.06937;0.00268;9.79477;0.02268;0.06185;9.80643;-0.08247;-0.06397;-0.01116;2.8E-4;8.6E-4;3.9E-4;24.6;15.823;4.896;-50.082;288.409;-0.461;-0.263;5.0;50.3254;47.4791;8.211027;402.7;NaN;;23.402;;0 / 4;2477;2022-09-27 20:14:53:268
-0.06937;0.00268;9.79477;0.02268;0.06185;9.80643;-0.08247;-0.06397;-0.01116;2.8E-4;8.6E-4;3.9E-4;24.6;15.823;4.896;-50.082;288.409;-0.461;-0.263;5.0;50.3254;47.4791;8.211027;402.7;NaN;;23.402;;0 / 4;2488;2022-09-27 20:14:53:279
-0.06937;0.00268;9.79477;0.02268;0.06185;9.80643;-0.08247;-0.06397;-0.01116;2.8E-4;8.6E-4;3.9E-4;24.6;15.823;4.896;-50.082;288.409;-0.461;-0.263;5.0;50.3254;47.4791;8.211027;402.7;NaN;;23.402;;0 / 4;2497;2022-09-27 20:14:53:288
-0.0574;2.9E-4;9.78758;0.02268;0.06185;9.80643;-0.08247;-0.06397;-0.01116;2.8E-4;8.6E-4;3.9E-4;24.6;15.823;4.896;-50.082;288.409;-0.461;-0.263;5.0;50.3254;47.4791;8.211027;402.7;NaN;;23.402;;0 / 4;2508;2022-09-27 20:14:53:299
-0.0574;2.9E-4;9.78758;0.02268;0.06185;9.80643;-0.08247;-0.06397;-0.01116;2.8E-4;8.6E-4;3.9E-4;24.6;15.823;4.896;-50.082;288.409;-0.461;-0.263;5.0;50.3254;47.4791;8.211027;402.7;NaN;;23.402;;0 / 4;2517;2022-09-27 20:14:53:308
-0.0574;2.9E-4;9.78758;0.02268;0.06185;9.80643;-0.08247;-0.06397;-0.01116;2.8E-4;8.6E-4;3.9E-4;24.6;15.823;4.896;-50.082;288.409;-0.461;-0.263;5.0;50.3254;47.4791;8.211027;402.7;NaN;;23.402;;0 / 4;2527;2022-09-27 20:14:53:318
-0.0574;2.9E-4;9.78758;0.00469;0.0489;9.80653;-0.06721;-0.04963;-0.01388;2.8E-4;8.6E-4;3.9E-4;24.6;15.823;4.896;-50.082;288.409;-0.461;-0.263;5.0;50.3254;47.4791;8.211027;402.7;NaN;;23.402;;0 / 4;2537;2022-09-27 20:14:53:328
-0.0574;2.9E-4;9.78758;0.00469;0.0489;9.80653;-0.06721;-0.04963;-0.01388;2.8E-4;8.6E-4;3.9E-4;24.6;15.823;4.896;-50.082;288.409;-0.461;-0.263;5.0;50.3254;47.4791;8.211027;402.7;NaN;;23.402;;0 / 4;2547;2022-09-27 20:14:53:338
-0.0574;2.9E-4;9.78758;0.00469;0.0489;9.80653;-0.06721;-0.04963;-0.01388;2.8E-4;8.6E-4;3.9E-4;24.6;15.823;4.896;-50.082;288.409;-0.461;-0.263;5.0;50.3254;47.4791;8.211027;402.7;NaN;;23.402;;0 / 4;2557;2022-09-27 20:14:53:348
-0.0574;2.9E-4;9.78758;0.00469;0.0489;9.80653;-0.06721;-0.04963;-0.01388;2.8E-4;8.6E-4;3.9E-4;24.6;15.578;3.709;-51.066;284.868;-0.286;-0.027;5.0;51.56;47.4791;8.211027;402.7;NaN;;23.402;;0 / 4;2567;2022-09-27 20:14:53:358
-0.0574;2.9E-4;9.78758;0.00469;0.0489;9.80653;-0.06721;-0.04963;-0.01388;4.3E-4;4.1E-4;8.0E-5;24.6;15.578;3.709;-51.066;284.868;-0.286;-0.027;5.0;51.56;47.4791;8.211027;402.7;NaN;;23.402;;0 / 4;2577;2022-09-27 20:14:53:368
-0.0574;2.9E-4;9.78758;0.00469;0.0489;9.80653;-0.06721;-0.04963;-0.01388;4.3E-4;4.1E-4;8.0E-5;24.6;15.578;3.709;-51.066;284.868;-0.286;-0.027;5.0;51.56;47.4791;8.211027;402.7;NaN;;23.402;;0 / 4;2588;2022-09-27 20:14:53:379
-0.0574;2.9E-4;9.78758;0.00469;0.0489;9.80653;-0.06721;-0.04963;-0.01388;4.3E-4;4.1E-4;8.0E-5;24.6;15.578;3.709;-51.066;284.868;-0.286;-0.027;5.0;51.56;47.4791;8.211027;402.7;NaN;;23.402;;0 / 4;2596;2022-09-27 20:14:53:387
-0.0574;2.9E-4;9.78758;0.00469;0.0489;9.80653;-0.06721;-0.04963;-0.01388;4.3E-4;4.1E-4;8.0E-5;24.6;15.578;3.709;-51.066;284.868;-0.286;-0.027;5.0;51.56;47.4791;8.211027;402.7;NaN;;23.402;;0 / 4;2609;2022-09-27 20:14:53:400
-0.0574;2.9E-4;9.78758;0.00469;0.0489;9.80653;-0.06721;-0.04963;-0.01388;4.3E-4;4.1E-4;8.0E-5;24.6;15.578;3.709;-51.066;284.868;-0.286;-0.027;5.0;51.56;47.4791;8.211027;402.7;NaN;;23.402;;0 / 4;2616;2022-09-27 20:14:53:407
-0.0574;2.9E-4;9.78758;0.00469;0.0489;9.80653;-0.06721;-0.04963;-0.01388;4.3E-4;4.1E-4;8.0E-5;24.6;15.578;3.709;-51.066;284.868;-0.286;-0.027;5.0;51.56;47.4791;8.211027;402.7;NaN;;23.402;;0 / 4;2626;2022-09-27 20:14:53:417
-0.06219;2.9E-4;9.78279;-0.00276;0.04341;9.80655;-0.06251;-0.04345;-0.01538;4.3E-4;4.1E-4;8.0E-5;24.6;15.578;3.709;-51.066;284.868;-0.286;-0.027;5.0;51.56;47.4791;8.211027;402.7;NaN;;23.402;;0 / 4;2637;2022-09-27 20:14:53:428
-0.06219;2.9E-4;9.78279;-0.00276;0.04341;9.80655;-0.06251;-0.04345;-0.01538;4.3E-4;4.1E-4;8.0E-5;24.6;15.578;3.709;-51.066;284.868;-0.286;-0.027;5.0;51.56;47.4791;8.211027;402.7;NaN;;23.402;;0 / 4;2647;2022-09-27 20:14:53:438
-0.06219;2.9E-4;9.78279;-0.00276;0.04341;9.80655;-0.06251;-0.04345;-0.01538;4.3E-4;4.1E-4;8.0E-5;24.6;15.578;3.709;-51.066;284.868;-0.286;-0.027;5.0;51.56;47.4791;8.211027;402.7;NaN;;23.402;;0 / 4;2657;2022-09-27 20:14:53:448
-0.06219;2.9E-4;9.78279;-0.00276;0.04341;9.80655;-0.06251;-0.04345;-0.01538;4.3E-4;4.1E-4;8.0E-5;24.6;15.578;3.709;-51.066;284.868;-0.286;-0.027;5.0;51.56;47.4791;8.211027;402.7;NaN;;23.402;;0 / 4;2667;2022-09-27 20:14:53:458
-0.06219;2.9E-4;9.78279;-0.00276;0.04341;9.80655;-0.06251;-0.04345;-0.01538;4.3E-4;4.1E-4;8.0E-5;24.6;15.578;3.709;-51.066;284.868;-0.286;-0.027;5.0;51.56;47.4791;8.211027;402.7;NaN;;23.402;;0 / 4;2677;2022-09-27 20:14:53:468
-0.06219;2.9E-4;9.78279;-0.00276;0.04341;9.80655;-0.06251;-0.04345;-0.01538;4.3E-4;4.1E-4;8.0E-5;24.6;15.578;3.709;-51.066;284.868;-0.286;-0.027;5.0;51.56;47.4791;8.211027;402.7;NaN;;23.402;;0 / 4;2687;2022-09-27 20:14:53:478
-0.06219;2.9E-4;9.78279;-0.00276;0.04341;9.80655;-0.06251;-0.04345;-0.01538;4.3E-4;4.1E-4;8.0E-5;24.6;15.578;3.709;-51.066;284.868;-0.286;-0.027;5.0;51.56;47.4791;8.211027;402.7;NaN;;23.402;;0 / 4;2696;2022-09-27 20:14:53:487
-0.06219;2.9E-4;9.78279;-0.00276;0.04341;9.80655;-0.06251;-0.04345;-0.01538;2.8E-4;7.1E-4;2.4E-4;24.6;15.578;3.709;-51.066;284.868;-0.286;-0.027;5.0;51.56;47.4791;8.211027;402.7;NaN;;23.402;;0 / 4;2707;2022-09-27 20:14:53:498
-0.06219;2.9E-4;9.78279;-0.00276;0.04341;9.80655;-0.06251;-0.04345;-0.01538;2.8E-4;7.1E-4;2.4E-4;24.6;15.578;3.709;-51.066;284.868;-0.286;-0.027;5.0;51.56;47.4791;8.211027;402.7;NaN;;23.402;;0 / 4;2717;2022-09-27 20:14:53:508
-0.06219;2.9E-4;9.78279;-0.00276;0.04341;9.80655;-0.06251;-0.04345;-0.01538;2.8E-4;7.1E-4;2.4E-4;24.6;15.578;3.709;-51.066;284.868;-0.286;-0.027;5.0;51.56;47.4791;8.211027;402.7;NaN;;23.402;;0 / 4;2727;2022-09-27 20:14:53:518
-0.06219;2.9E-4;9.78279;-0.00276;0.04341;9.80655;-0.06251;-0.04345;-0.01538;2.8E-4;7.1E-4;2.4E-4;24.6;15.578;3.709;-51.066;284.868;-0.286;-0.027;5.0;51.56;47.4791;8.211027;402.7;NaN;;23.402;;0 / 4;2737;2022-09-27 20:14:53:528
-0.06219;2.9E-4;9.78279;-0.00276;0.04341;9.80655;-0.06251;-0.04345;-0.01538;2.8E-4;7.1E-4;2.4E-4;24.6;15.578;3.709;-51.066;284.868;-0.286;-0.027;5.0;51.56;47.4791;8.211027;402.7;NaN;;23.402;;0 / 4;2747;2022-09-27 20:14:53:538
-0.06219;2.9E-4;9.78279;-0.00276;0.04341;9.80655;-0.06251;-0.04345;-0.01538;2.8E-4;7.1E-4;2.4E-4;24.6;15.578;3.709;-51.066;284.868;-0.286;-0.027;5.0;51.56;47.4791;8.211027;402.7;NaN;;23.402;;0 / 4;2758;2022-09-27 20:14:53:549
-0.06219;2.9E-4;9.78279;-0.00276;0.04341;9.80655;-0.06251;-0.04345;-0.01538;2.8E-4;7.1E-4;2.4E-4;24.6;15.202;5.551;-48.56;292.531;-0.254;0.016;5.0;51.56;47.4791;8.211027;402.7;NaN;;23.402;;0 / 4;2767;2022-09-27 20:14:53:558
-0.06458;-0.0045;9.7756;-0.01549;0.03456;9.80658;-0.04705;-0.03254;-0.01513;2.8E-4;7.1E-4;2.4E-4;24.6;15.202;5.551;-48.56;292.531;-0.254;0.016;5.0;51.56;47.4791;8.211027;402.7;NaN;;23.402;;0 / 4;2776;2022-09-27 20:14:53:567
-0.06458;-0.0045;9.7756;-0.01549;0.03456;9.80658;-0.04705;-0.03254;-0.01513;2.8E-4;7.1E-4;2.4E-4;24.6;15.202;5.551;-48.56;292.531;-0.254;0.016;5.0;51.56;47.4791;8.211027;402.7;NaN;;23.402;;0 / 4;2786;2022-09-27 20:14:53:577
-0.06458;-0.0045;9.7756;-0.01549;0.03456;9.80658;-0.04705;-0.03254;-0.01513;2.8E-4;7.1E-4;2.4E-4;24.6;15.202;5.551;-48.56;292.531;-0.254;0.016;5.0;51.56;47.4791;8.211027;402.7;NaN;;23.402;;0 / 4;2797;2022-09-27 20:14:53:588
-0.06458;-0.0045;9.7756;-0.01549;0.03456;9.80658;-0.04705;-0.03254;-0.01513;2.8E-4;7.1E-4;2.4E-4;24.6;15.202;5.551;-48.56;292.531;-0.254;0.016;5.0;51.56;47.4791;8.211027;402.7;NaN;;23.402;;0 / 4;2807;2022-09-27 20:14:53:598
-0.06458;-0.0045;9.7756;-0.01549;0.03456;9.80658;-0.04705;-0.03254;-0.01513;2.8E-4;7.1E-4;2.4E-4;24.6;15.202;5.551;-48.56;292.531;-0.254;0.016;5.0;51.56;47.4791;8.211027;402.7;NaN;;23.402;;0 / 4;2817;2022-09-27 20:14:53:608
-0.06458;-0.0045;9.7756;-0.01549;0.03456;9.80658;-0.04705;-0.03254;-0.01513;2.8E-4;7.1E-4;2.4E-4;24.6;15.202;5.551;-48.56;292.531;-0.254;0.016;5.0;51.56;47.4791;8.211027;402.7;NaN;;23.402;;0 / 4;2826;2022-09-27 20:14:53:617
-0.06458;-0.0045;9.7756;-0.01549;0.03456;9.80658;-0.04705;-0.03254;-0.01513;2.8E-4;7.1E-4;2.4E-4;24.6;15.202;5.551;-48.56;292.531;-0.254;0.016;5.0;51.56;47.4791;8.211027;402.7;NaN;;23.402;;0 / 4;2838;2022-09-27 20:14:53:629
-0.06458;-0.0045;9.7756;-0.01549;0.03456;9.80658;-0.04705;-0.03254;-0.01513;2.8E-4;7.1E-4;2.4E-4;24.6;15.202;5.551;-48.56;292.531;-0.254;0.016;5.0;51.56;47.4791;8.211027;402.7;NaN;;23.402;;0 / 4;2847;2022-09-27 20:14:53:638
-0.06458;-0.0045;9.7756;-0.01549;0.03456;9.80658;-0.04705;-0.03254;-0.01513;2.8E-4;7.1E-4;2.4E-4;24.6;15.202;5.551;-48.56;292.531;-0.254;0.016;5.0;51.56;47.4791;8.211027;402.7;NaN;;23.402;;0 / 4;2857;2022-09-27 20:14:53:648
-0.06458;-0.0045;9.7756;-0.01549;0.03456;9.80658;-0.04705;-0.03254;-0.01513;2.8E-4;7.1E-4;2.4E-4;24.6;15.202;5.551;-48.56;292.531;-0.254;0.016;5.0;51.56;47.4791;8.211027;402.7;NaN;;23.402;;0 / 4;2866;2022-09-27 20:14:53:657
-0.06458;-0.0045;9.7756;-0.01549;0.03456;9.80658;-0.04705;-0.03254;-0.01513;2.8E-4;7.1E-4;2.4E-4;24.6;15.202;5.551;-48.56;292.531;-0.254;0.016;5.0;51.56;47.4791;8.211027;402.7;NaN;;23.402;;0 / 4;2878;2022-09-27 20:14:53:669
-0.06458;-0.0045;9.7756;-0.01549;0.03456;9.80658;-0.04705;-0.03254;-0.01513;2.8E-4;7.1E-4;2.4E-4;24.6;15.202;5.551;-48.56;292.531;-0.254;0.016;5.0;52.1399;47.4791;8.211027;402.7;NaN;;23.402;;0 / 4;2887;2022-09-27 20:14:53:678
-0.06937;-0.00211;9.778;-0.0256;0.0265;9.80658;-0.04038;-0.02721;-0.01953;2.8E-4;7.1E-4;2.4E-4;24.6;15.202;5.551;-48.56;292.531;-0.254;0.016;5.0;52.1399;47.4791;8.211027;402.7;NaN;;23.402;;0 / 4;2897;2022-09-27 20:14:53:688
-0.06937;-0.00211;9.778;-0.0256;0.0265;9.80658;-0.04038;-0.02721;-0.01953;2.8E-4;7.1E-4;2.4E-4;24.6;15.202;5.551;-48.56;292.531;-0.254;0.016;5.0;52.1399;47.4791;8.211027;402.7;NaN;;23.402;;0 / 4;2907;2022-09-27 20:14:53:698
-0.06937;-0.00211;9.778;-0.0256;0.0265;9.80658;-0.04038;-0.02721;-0.01953;2.8E-4;7.1E-4;2.4E-4;24.6;15.202;5.551;-48.56;292.531;-0.254;0.016;5.0;52.1399;47.4791;8.211027;402.7;NaN;;23.402;;0 / 4;2917;2022-09-27 20:14:53:708
-0.06937;-0.00211;9.778;-0.0256;0.0265;9.80658;-0.04038;-0.02721;-0.01953;2.8E-4;7.1E-4;2.4E-4;24.6;15.789;4.187;-50.511;284.617;-0.155;0.15;5.0;52.1399;47.4791;8.211027;402.7;NaN;;23.402;;0 / 4;2927;2022-09-27 20:14:53:718
-0.06937;-0.00211;9.778;-0.0256;0.0265;9.80658;-0.04038;-0.02721;-0.01953;2.8E-4;7.1E-4;2.4E-4;24.6;15.789;4.187;-50.511;284.617;-0.155;0.15;5.0;52.1399;47.4791;8.211027;402.7;NaN;;23.402;;0 / 4;2938;2022-09-27 20:14:53:729
-0.06937;-0.00211;9.778;-0.0256;0.0265;9.80658;-0.04038;-0.02721;-0.01953;2.8E-4;7.1E-4;2.4E-4;24.6;15.789;4.187;-50.511;284.617;-0.155;0.15;5.0;52.1399;47.4791;8.211027;402.7;NaN;;23.402;;0 / 4;2947;2022-09-27 20:14:53:738
-0.06937;-0.00211;9.778;-0.0256;0.0265;9.80658;-0.04038;-0.02721;-0.01953;2.8E-4;7.1E-4;2.4E-4;24.6;15.789;4.187;-50.511;284.617;-0.155;0.15;5.0;52.1399;47.4791;8.211027;402.7;NaN;;23.402;;0 / 4;2958;2022-09-27 20:14:53:749
-0.06937;-0.00211;9.778;-0.0256;0.0265;9.80658;-0.04038;-0.02721;-0.01953;2.8E-4;7.1E-4;3.9E-4;24.6;15.789;4.187;-50.511;284.617;-0.155;0.15;5.0;52.1399;47.4791;8.211027;402.7;NaN;;23.402;;0 / 4;2968;2022-09-27 20:14:53:759
-0.06937;-0.00211;9.778;-0.0256;0.0265;9.80658;-0.04038;-0.02721;-0.01953;2.8E-4;7.1E-4;3.9E-4;24.6;15.789;4.187;-50.511;284.617;-0.155;0.15;5.0;52.1399;47.4791;8.211027;402.7;NaN;;23.402;;0 / 4;2977;2022-09-27 20:14:53:768
-0.06937;-0.00211;9.778;-0.0256;0.0265;9.80658;-0.04038;-0.02721;-0.01953;2.8E-4;7.1E-4;3.9E-4;24.6;15.789;4.187;-50.511;284.617;-0.155;0.15;5.0;52.1399;47.4791;8.211027;402.7;NaN;;23.402;;0 / 4;2986;2022-09-27 20:14:53:777
-0.06937;-0.00211;9.778;-0.0256;0.0265;9.80658;-0.04038;-0.02721;-0.01953;2.8E-4;7.1E-4;3.9E-4;24.6;15.789;4.187;-50.511;284.617;-0.155;0.15;5.0;52.1399;47.4791;8.211027;402.7;NaN;;23.402;;0 / 4;2997;2022-09-27 20:14:53:788
-0.06937;-0.00211;9.778;-0.0256;0.0265;9.80658;-0.04038;-0.02721;-0.01953;2.8E-4;7.1E-4;3.9E-4;24.6;15.789;4.187;-50.511;284.617;-0.155;0.15;5.0;52.1399;47.4791;8.211027;402.7;NaN;;23.402;;0 / 4;3007;2022-09-27 20:14:53:798
-0.06937;-0.00211;9.778;-0.0256;0.0265;9.80658;-0.04038;-0.02721;-0.01953;2.8E-4;7.1E-4;3.9E-4;24.6;15.789;4.187;-50.511;284.617;-0.155;0.15;5.0;52.1399;47.4791;8.211027;402.7;NaN;;23.402;;0 / 4;3019;2022-09-27 20:14:53:810
-0.06937;-0.00211;9.778;-0.0256;0.0265;9.80658;-0.04038;-0.02721;-0.01953;2.8E-4;7.1E-4;3.9E-4;24.6;15.789;4.187;-50.511;284.617;-0.155;0.15;5.0;52.1399;47.4791;8.211027;402.7;NaN;;23.402;;0 / 4;3027;2022-09-27 20:14:53:818
-0.06937;-0.00211;9.778;-0.0256;0.0265;9.80658;-0.04038;-0.02721;-0.01953;2.8E-4;7.1E-4;3.9E-4;24.6;15.789;4.187;-50.511;284.617;-0.155;0.15;5.0;52.1399;47.4791;8.211027;402.7;NaN;;23.402;;0 / 4;3037;2022-09-27 20:14:53:828
-0.06937;-0.00211;9.778;-0.0256;0.0265;9.80658;-0.04038;-0.02721;-0.01953;2.8E-4;7.1E-4;3.9E-4;24.6;15.789;4.187;-50.511;284.617;-0.155;0.15;5.0;52.1399;47.4791;8.211027;402.7;NaN;;23.402;;0 / 4;3047;2022-09-27 20:14:53:838
-0.06458;2.9E-4;9.77081;-0.03346;0.02058;9.80657;-0.03049;-0.0206;-0.01739;2.8E-4;7.1E-4;3.9E-4;24.6;15.824;4.459;-50.015;284.538;-0.12;0.195;5.0;52.1399;47.4791;8.211027;402.7;NaN;;23.402;;0 / 4;3056;2022-09-27 20:14:53:847
-0.06458;2.9E-4;9.77081;-0.03346;0.02058;9.80657;-0.03049;-0.0206;-0.01739;2.8E-4;7.1E-4;3.9E-4;24.6;15.824;4.459;-50.015;284.538;-0.12;0.195;5.0;52.1399;47.4791;8.211027;402.7;NaN;;23.402;;0 / 4;3066;2022-09-27 20:14:53:857
-0.06458;2.9E-4;9.77081;-0.03346;0.02058;9.80657;-0.03049;-0.0206;-0.01739;2.8E-4;7.1E-4;3.9E-4;24.6;15.824;4.459;-50.015;284.538;-0.12;0.195;5.0;52.1399;47.4791;8.211027;402.7;NaN;;23.402;;0 / 4;3077;2022-09-27 20:14:53:868
-0.06458;2.9E-4;9.77081;-0.03346;0.02058;9.80657;-0.03049;-0.0206;-0.01739;2.8E-4;7.1E-4;3.9E-4;24.6;15.824;4.459;-50.015;284.538;-0.12;0.195;5.0;52.1399;47.4791;8.211027;402.7;NaN;;23.402;;0 / 4;3087;2022-09-27 20:14:53:878
-0.06458;2.9E-4;9.77081;-0.03346;0.02058;9.80657;-0.03049;-0.0206;-0.01739;2.8E-4;7.1E-4;3.9E-4;24.6;15.824;4.459;-50.015;284.538;-0.12;0.195;5.0;52.1399;47.4791;8.211027;402.7;NaN;;23.402;;0 / 4;3097;2022-09-27 20:14:53:888
-0.06458;2.9E-4;9.77081;-0.03346;0.02058;9.80657;-0.03049;-0.0206;-0.01739;2.8E-4;7.1E-4;3.9E-4;24.6;15.824;4.459;-50.015;284.538;-0.12;0.195;5.0;52.1399;47.4791;8.211027;402.7;NaN;;23.402;;0 / 4;3106;2022-09-27 20:14:53:897
-0.06458;2.9E-4;9.77081;-0.03346;0.02058;9.80657;-0.03049;-0.0206;-0.01739;5.9E-4;7.1E-4;2.4E-4;24.6;15.824;4.459;-50.015;284.538;-0.12;0.195;5.0;52.1399;47.4791;8.211027;402.7;NaN;;23.402;;0 / 4;3117;2022-09-27 20:14:53:908
-0.06458;2.9E-4;9.77081;-0.03346;0.02058;9.80657;-0.03049;-0.0206;-0.01739;5.9E-4;7.1E-4;2.4E-4;24.6;15.824;4.459;-50.015;284.538;-0.12;0.195;5.0;52.1399;47.4791;8.211027;402.7;NaN;;23.402;;0 / 4;3127;2022-09-27 20:14:53:918
-0.06458;2.9E-4;9.77081;-0.03346;0.02058;9.80657;-0.03049;-0.0206;-0.01739;5.9E-4;7.1E-4;2.4E-4;24.6;15.824;4.459;-50.015;284.538;-0.12;0.195;5.0;52.1399;47.4791;8.211027;402.7;NaN;;23.402;;0 / 4;3138;2022-09-27 20:14:53:929
-0.06458;2.9E-4;9.77081;-0.03346;0.02058;9.80657;-0.03049;-0.0206;-0.01739;5.9E-4;7.1E-4;2.4E-4;24.6;15.824;4.459;-50.015;284.538;-0.12;0.195;5.0;52.1399;47.4791;8.211027;402.7;NaN;;23.402;;0 / 4;3146;2022-09-27 20:14:53:937
-0.06458;2.9E-4;9.77081;-0.03346;0.02058;9.80657;-0.03049;-0.0206;-0.01739;5.9E-4;7.1E-4;2.4E-4;24.6;15.824;4.459;-50.015;284.538;-0.12;0.195;5.0;52.1399;47.4791;8.211027;402.7;NaN;;23.402;;0 / 4;3156;2022-09-27 20:14:53:947
-0.06458;2.9E-4;9.77081;-0.03346;0.02058;9.80657;-0.03049;-0.0206;-0.01739;5.9E-4;7.1E-4;2.4E-4;24.6;15.824;4.459;-50.015;284.538;-0.12;0.195;5.0;52.1399;47.4791;8.211027;402.7;NaN;;23.402;;0 / 4;3167;2022-09-27 20:14:53:958
-0.06458;2.9E-4;9.76842;-0.04007;0.01695;9.80655;-0.02596;-0.01492;-0.01604;5.9E-4;7.1E-4;2.4E-4;24.6;15.824;4.459;-50.015;284.538;-0.12;0.195;5.0;52.1399;47.4791;8.211027;402.7;NaN;;23.402;;0 / 4;3178;2022-09-27 20:14:53:969
-0.06458;2.9E-4;9.76842;-0.04007;0.01695;9.80655;-0.02596;-0.01492;-0.01604;5.9E-4;7.1E-4;2.4E-4;24.6;15.523;4.739;-49.489;287.84;-0.099;0.234;5.0;52.1399;47.4791;8.211027;402.7;NaN;;23.402;;0 / 4;3187;2022-09-27 20:14:53:978
-0.06458;2.9E-4;9.76842;-0.04007;0.01695;9.80655;-0.02596;-0.01492;-0.01604;5.9E-4;7.1E-4;2.4E-4;24.6;15.523;4.739;-49.489;287.84;-0.099;0.234;5.0;52.1399;47.4791;8.211027;402.7;NaN;;23.402;;0 / 4;3197;2022-09-27 20:14:53:988
-0.06458;2.9E-4;9.76842;-0.04007;0.01695;9.80655;-0.02596;-0.01492;-0.01604;5.9E-4;7.1E-4;2.4E-4;24.6;15.523;4.739;-49.489;287.84;-0.099;0.234;5.0;52.1399;47.4791;8.211027;402.7;NaN;;23.402;;0 / 4;3207;2022-09-27 20:14:53:998
-0.06458;2.9E-4;9.76842;-0.04007;0.01695;9.80655;-0.02596;-0.01492;-0.01604;5.9E-4;7.1E-4;2.4E-4;24.6;15.523;4.739;-49.489;287.84;-0.099;0.234;5.0;52.1767;47.4791;8.211027;402.7;NaN;;23.402;;0 / 4;3217;2022-09-27 20:14:54:008
-0.06458;2.9E-4;9.76842;-0.04007;0.01695;9.80655;-0.02596;-0.01492;-0.01604;5.9E-4;7.1E-4;2.4E-4;24.6;15.523;4.739;-49.489;287.84;-0.099;0.234;5.0;52.1767;47.4791;8.211027;402.7;NaN;;23.402;;0 / 4;3227;2022-09-27 20:14:54:018
-0.06458;2.9E-4;9.76842;-0.04007;0.01695;9.80655;-0.02596;-0.01492;-0.01604;4.3E-4;7.1E-4;2.4E-4;24.6;15.523;4.739;-49.489;287.84;-0.099;0.234;5.0;52.1767;47.4791;8.211027;402.7;NaN;;23.402;;0 / 4;3238;2022-09-27 20:14:54:029
-0.06458;2.9E-4;9.76842;-0.04007;0.01695;9.80655;-0.02596;-0.01492;-0.01604;4.3E-4;7.1E-4;2.4E-4;24.6;15.523;4.739;-49.489;287.84;-0.099;0.234;5.0;52.1767;47.4791;8.211027;402.7;NaN;;23.402;;0 / 4;3247;2022-09-27 20:14:54:038
-0.06458;2.9E-4;9.76842;-0.04007;0.01695;9.80655;-0.02596;-0.01492;-0.01604;4.3E-4;7.1E-4;2.4E-4;24.6;15.523;4.739;-49.489;287.84;-0.099;0.234;5.0;52.1767;47.4791;8.211027;402.7;NaN;;23.402;;0 / 4;3256;2022-09-27 20:14:54:047
-0.06458;2.9E-4;9.76842;-0.04007;0.01695;9.80655;-0.02596;-0.01492;-0.01604;4.3E-4;7.1E-4;2.4E-4;24.6;15.523;4.739;-49.489;287.84;-0.099;0.234;5.0;52.1767;47.4791;8.211027;402.7;NaN;;23.402;;0 / 4;3267;2022-09-27 20:14:54:058
-0.06458;2.9E-4;9.76842;-0.04007;0.01695;9.80655;-0.02596;-0.01492;-0.01604;4.3E-4;7.1E-4;2.4E-4;24.6;15.523;4.739;-49.489;287.84;-0.099;0.234;5.0;52.1767;47.4791;8.211027;402.7;NaN;;23.402;;0 / 4;3277;2022-09-27 20:14:54:068
-0.06458;0.00747;9.76363;-0.04007;0.01695;9.80655;-0.02596;-0.01492;-0.01604;4.3E-4;7.1E-4;2.4E-4;24.6;15.523;4.739;-49.489;287.84;-0.099;0.234;5.0;52.1767;47.4791;8.211027;402.7;NaN;;23.402;;0 / 4;3288;2022-09-27 20:14:54:079
-0.06458;0.00747;9.76363;-0.04007;0.01695;9.80655;-0.02596;-0.01492;-0.01604;4.3E-4;7.1E-4;2.4E-4;24.6;15.523;4.739;-49.489;287.84;-0.099;0.234;5.0;52.1767;47.4791;8.211027;402.7;NaN;;23.402;;0 / 4;3296;2022-09-27 20:14:54:087
-0.06458;0.00747;9.76363;-0.04007;0.01695;9.80655;-0.02596;-0.01492;-0.01604;4.3E-4;7.1E-4;2.4E-4;24.6;15.523;4.739;-49.489;287.84;-0.099;0.234;5.0;52.1767;47.4791;8.211027;402.7;NaN;;23.402;;0 / 4;3309;2022-09-27 20:14:54:100
-0.06458;0.00747;9.76363;-0.04496;0.01341;9.80654;-0.02179;-0.01206;-0.01518;4.3E-4;7.1E-4;2.4E-4;24.6;15.523;4.739;-49.489;287.84;-0.099;0.234;5.0;52.1767;47.4791;8.211027;402.7;NaN;;23.402;;0 / 4;3317;2022-09-27 20:14:54:108
-0.06458;0.00747;9.76363;-0.04496;0.01341;9.80654;-0.02179;-0.01206;-0.01518;4.3E-4;7.1E-4;2.4E-4;24.6;15.333;4.044;-50.039;285.4;-0.078;0.263;5.0;52.1767;47.4791;8.211027;402.7;NaN;;23.402;;0 / 6;3326;2022-09-27 20:14:54:117
-0.06458;0.00747;9.76363;-0.04496;0.01341;9.80654;-0.02179;-0.01206;-0.01518;4.3E-4;7.1E-4;2.4E-4;24.6;15.333;4.044;-50.039;285.4;-0.078;0.263;5.0;52.1767;47.4791;8.211027;402.7;NaN;;23.402;;0 / 6;3336;2022-09-27 20:14:54:127
-0.06458;0.00747;9.76363;-0.04496;0.01341;9.80654;-0.02179;-0.01206;-0.01518;4.3E-4;7.1E-4;2.4E-4;24.6;15.333;4.044;-50.039;285.4;-0.078;0.263;5.0;52.1767;47.4791;8.211027;402.7;NaN;;23.402;;0 / 6;3346;2022-09-27 20:14:54:137
-0.06458;0.00747;9.76363;-0.04496;0.01341;9.80654;-0.02179;-0.01206;-0.01518;4.3E-4;7.1E-4;2.4E-4;24.6;15.333;4.044;-50.039;285.4;-0.078;0.263;5.0;52.1767;47.4791;8.211027;402.7;NaN;;23.402;;0 / 6;3356;2022-09-27 20:14:54:147
-0.06458;0.00747;9.76363;-0.04496;0.01341;9.80654;-0.02179;-0.01206;-0.01518;4.3E-4;7.1E-4;2.4E-4;24.6;15.333;4.044;-50.039;285.4;-0.078;0.263;5.0;52.1767;47.4791;8.211027;402.7;NaN;;23.402;;0 / 6;3368;2022-09-27 20:14:54:159
-0.06698;0.00268;9.76602;-0.04496;0.01341;9.80654;-0.02179;-0.01206;-0.01518;5.9E-4;7.1E-4;3.9E-4;24.6;15.333;4.044;-50.039;285.4;-0.078;0.263;5.0;52.1767;47.4791;8.211027;402.7;NaN;;23.402;;0 / 6;3377;2022-09-27 20:14:54:168
-0.06698;0.00268;9.76602;-0.04496;0.01341;9.80654;-0.02179;-0.01206;-0.01518;5.9E-4;7.1E-4;3.9E-4;24.6;15.333;4.044;-50.039;285.4;-0.078;0.263;5.0;52.1767;47.4791;8.211027;402.7;NaN;;23.402;;0 / 6;3387;2022-09-27 20:14:54:178
-0.06698;0.00268;9.76602;-0.04496;0.01341;9.80654;-0.02179;-0.01206;-0.01518;5.9E-4;7.1E-4;3.9E-4;24.6;15.333;4.044;-50.039;285.4;-0.078;0.263;5.0;52.1767;47.4791;8.211027;402.7;NaN;;23.402;;0 / 6;3397;2022-09-27 20:14:54:188
-0.06698;0.00268;9.76602;-0.04496;0.01341;9.80654;-0.02179;-0.01206;-0.01518;5.9E-4;7.1E-4;3.9E-4;24.6;15.333;4.044;-50.039;285.4;-0.078;0.263;5.0;52.1767;47.4791;8.211027;402.7;NaN;;23.402;;0 / 6;3407;2022-09-27 20:14:54:198
-0.06698;0.00268;9.76602;-0.04496;0.01341;9.80654;-0.02179;-0.01206;-0.01518;5.9E-4;7.1E-4;3.9E-4;24.6;15.333;4.044;-50.039;285.4;-0.078;0.263;5.0;52.1767;47.4791;8.211027;402.7;NaN;;23.402;;0 / 6;3417;2022-09-27 20:14:54:208
-0.06698;0.00268;9.76602;-0.04496;0.01341;9.80654;-0.02179;-0.01206;-0.01518;5.9E-4;7.1E-4;3.9E-4;24.6;15.333;4.044;-50.039;285.4;-0.078;0.263;5.0;52.1767;47.4791;8.211027;402.7;NaN;;23.402;;0 / 6;3427;2022-09-27 20:14:54:218
-0.06698;0.00268;9.76602;-0.04851;0.01109;9.80652;-0.01416;-0.00837;-0.01375;5.9E-4;7.1E-4;3.9E-4;24.6;15.333;4.044;-50.039;285.4;-0.078;0.263;5.0;52.1767;47.4791;8.211027;402.7;NaN;;23.402;;0 / 6;3436;2022-09-27 20:14:54:227
-0.06698;0.00268;9.76602;-0.04851;0.01109;9.80652;-0.01416;-0.00837;-0.01375;5.9E-4;7.1E-4;3.9E-4;24.6;16.025;3.849;-50.244;284.441;-0.065;0.283;5.0;52.1767;47.4791;8.211027;402.7;NaN;;23.402;;0 / 6;3447;2022-09-27 20:14:54:238
-0.06698;0.00268;9.76602;-0.04851;0.01109;9.80652;-0.01416;-0.00837;-0.01375;5.9E-4;7.1E-4;3.9E-4;24.6;16.025;3.849;-50.244;284.441;-0.065;0.283;5.0;52.1767;47.4791;8.211027;402.7;NaN;;23.402;;0 / 6;3458;2022-09-27 20:14:54:249
-0.06698;0.00268;9.76602;-0.04851;0.01109;9.80652;-0.01416;-0.00837;-0.01375;5.9E-4;7.1E-4;3.9E-4;24.6;16.025;3.849;-50.244;284.441;-0.065;0.283;5.0;52.1767;47.4791;8.211027;402.7;NaN;;23.402;;0 / 6;3467;2022-09-27 20:14:54:258
-0.06698;0.00268;9.76602;-0.04851;0.01109;9.80652;-0.01416;-0.00837;-0.01375;5.9E-4;7.1E-4;3.9E-4;24.6;16.025;3.849;-50.244;284.441;-0.065;0.283;5.0;52.1767;47.4791;8.211027;402.7;NaN;;23.402;;0 / 6;3477;2022-09-27 20:14:54:268
-0.06698;0.00268;9.76602;-0.04851;0.01109;9.80652;-0.01416;-0.00837;-0.01375;5.9E-4;7.1E-4;3.9E-4;24.6;16.025;3.849;-50.244;284.441;-0.065;0.283;5.0;52.1767;47.4791;8.211027;402.7;NaN;;23.402;;0 / 6;3488;2022-09-27 20:14:54:279
-0.06698;0.00268;9.76602;-0.04851;0.01109;9.80652;-0.01416;-0.00837;-0.01375;5.9E-4;7.1E-4;3.9E-4;24.6;16.025;3.849;-50.244;284.441;-0.065;0.283;5.0;52.1767;47.4791;8.211027;402.7;NaN;;23.402;;0 / 6;3497;2022-09-27 20:14:54:288
-0.06458;-0.0045;9.76363;-0.04851;0.01109;9.80652;-0.01416;-0.00837;-0.01375;1.3E-4;2.5E-4;3.9E-4;24.6;16.025;3.849;-50.244;284.441;-0.065;0.283;5.0;52.1767;47.4791;8.211027;402.7;NaN;;23.402;;0 / 6;3507;2022-09-27 20:14:54:298
-0.06458;-0.0045;9.76363;-0.04851;0.01109;9.80652;-0.01416;-0.00837;-0.01375;1.3E-4;2.5E-4;3.9E-4;24.6;16.025;3.849;-50.244;284.441;-0.065;0.283;5.0;52.1767;47.4791;8.211027;402.7;NaN;;23.402;;0 / 6;3517;2022-09-27 20:14:54:308
-0.06458;-0.0045;9.76363;-0.04851;0.01109;9.80652;-0.01416;-0.00837;-0.01375;1.3E-4;2.5E-4;3.9E-4;24.6;16.025;3.849;-50.244;284.441;-0.065;0.283;5.0;52.1767;47.4791;8.211027;402.7;NaN;;23.402;;0 / 6;3527;2022-09-27 20:14:54:318
-0.06458;-0.0045;9.76363;-0.04851;0.01109;9.80652;-0.01416;-0.00837;-0.01375;1.3E-4;2.5E-4;3.9E-4;24.6;16.025;3.849;-50.244;284.441;-0.065;0.283;5.0;52.1767;47.4791;8.211027;402.7;NaN;;23.402;;0 / 6;3536;2022-09-27 20:14:54:327
-0.06458;-0.0045;9.76363;-0.04851;0.01109;9.80652;-0.01416;-0.00837;-0.01375;1.3E-4;2.5E-4;3.9E-4;24.6;16.025;3.849;-50.244;284.441;-0.065;0.283;5.0;52.5266;47.4791;8.211027;402.7;NaN;;23.402;;0 / 6;3547;2022-09-27 20:14:54:338
-0.06458;-0.0045;9.76363;-0.04851;0.01109;9.80652;-0.01416;-0.00837;-0.01375;1.3E-4;2.5E-4;3.9E-4;24.6;16.025;3.849;-50.244;284.441;-0.065;0.283;5.0;52.5266;47.4791;8.211027;402.7;NaN;;23.402;;0 / 6;3556;2022-09-27 20:14:54:347
-0.06458;-0.0045;9.76363;-0.04851;0.01109;9.80652;-0.01416;-0.00837;-0.01375;1.3E-4;2.5E-4;3.9E-4;24.6;16.025;3.849;-50.244;284.441;-0.065;0.283;5.0;52.5266;47.4791;8.211027;402.7;NaN;;23.402;;0 / 6;3567;2022-09-27 20:14:54:358
-0.06458;-0.0045;9.76363;-0.05137;0.00837;9.80651;-0.01338;-0.00976;-0.01391;1.3E-4;2.5E-4;3.9E-4;24.6;16.025;3.849;-50.244;284.441;-0.065;0.283;5.0;52.5266;47.4791;8.211027;402.7;NaN;;23.402;;0 / 6;3577;2022-09-27 20:14:54:368
-0.06458;-0.0045;9.76363;-0.05137;0.00837;9.80651;-0.01338;-0.00976;-0.01391;1.3E-4;2.5E-4;3.9E-4;24.6;16.092;4.42;-50.325;284.407;-0.049;0.3;5.0;52.5266;47.4791;8.211027;402.7;NaN;;23.402;;0 / 6;3587;2022-09-27 20:14:54:378
-0.06458;-0.0045;9.76363;-0.05137;0.00837;9.80651;-0.01338;-0.00976;-0.01391;1.3E-4;2.5E-4;3.9E-4;24.6;16.092;4.42;-50.325;284.407;-0.049;0.3;5.0;52.5266;47.4791;8.211027;402.7;NaN;;23.402;;0 / 6;3597;2022-09-27 20:14:54:388
-0.06458;-0.0045;9.76363;-0.05137;0.00837;9.80651;-0.01338;-0.00976;-0.01391;1.3E-4;2.5E-4;3.9E-4;24.6;16.092;4.42;-50.325;284.407;-0.049;0.3;5.0;52.5266;47.4791;8.211027;402.7;NaN;;23.402;;0 / 6;3608;2022-09-27 20:14:54:399
-0.06458;-0.0045;9.76363;-0.05137;0.00837;9.80651;-0.01338;-0.00976;-0.01391;1.3E-4;2.5E-4;3.9E-4;24.6;16.092;4.42;-50.325;284.407;-0.049;0.3;5.0;52.5266;47.4791;8.211027;402.7;NaN;;23.402;;0 / 6;3616;2022-09-27 20:14:54:407
-0.06458;-0.0045;9.76363;-0.05137;0.00837;9.80651;-0.01338;-0.00976;-0.01391;1.3E-4;2.5E-4;3.9E-4;24.6;16.092;4.42;-50.325;284.407;-0.049;0.3;5.0;52.5266;47.4791;8.211027;402.7;NaN;;23.402;;0 / 6;3628;2022-09-27 20:14:54:419
-0.06458;0.00508;9.76363;-0.05137;0.00837;9.80651;-0.01338;-0.00976;-0.01391;4.3E-4;5.6E-4;3.9E-4;24.6;16.092;4.42;-50.325;284.407;-0.049;0.3;5.0;52.5266;47.4791;8.211027;402.7;NaN;;23.402;;0 / 6;3637;2022-09-27 20:14:54:428
-0.06458;0.00508;9.76363;-0.05137;0.00837;9.80651;-0.01338;-0.00976;-0.01391;4.3E-4;5.6E-4;3.9E-4;24.6;16.092;4.42;-50.325;284.407;-0.049;0.3;5.0;52.5266;47.4791;8.211027;402.7;NaN;;23.402;;0 / 6;3647;2022-09-27 20:14:54:438
-0.06458;0.00508;9.76363;-0.05137;0.00837;9.80651;-0.01338;-0.00976;-0.01391;4.3E-4;5.6E-4;3.9E-4;24.6;16.092;4.42;-50.325;284.407;-0.049;0.3;5.0;52.5266;47.4791;8.211027;402.7;NaN;;23.402;;0 / 6;3658;2022-09-27 20:14:54:449
-0.06458;0.00508;9.76363;-0.05137;0.00837;9.80651;-0.01338;-0.00976;-0.01391;4.3E-4;5.6E-4;3.9E-4;24.6;16.092;4.42;-50.325;284.407;-0.049;0.3;5.0;52.5266;47.4791;8.211027;402.7;NaN;;23.402;;0 / 6;3667;2022-09-27 20:14:54:458
-0.06458;0.00508;9.76363;-0.05137;0.00837;9.80651;-0.01338;-0.00976;-0.01391;4.3E-4;5.6E-4;3.9E-4;24.6;16.092;4.42;-50.325;284.407;-0.049;0.3;5.0;52.5266;47.4791;8.211027;402.7;NaN;;23.402;;0 / 6;3677;2022-09-27 20:14:54:468
-0.06458;0.00508;9.76363;-0.05137;0.00837;9.80651;-0.01338;-0.00976;-0.01391;4.3E-4;5.6E-4;3.9E-4;24.6;16.092;4.42;-50.325;284.407;-0.049;0.3;5.0;52.5266;47.4791;8.211027;402.7;NaN;;23.402;;0 / 6;3687;2022-09-27 20:14:54:478
-0.06458;0.00508;9.76363;-0.05137;0.00837;9.80651;-0.01338;-0.00976;-0.01391;4.3E-4;5.6E-4;3.9E-4;24.6;16.092;4.42;-50.325;284.407;-0.049;0.3;5.0;52.5266;47.4791;8.211027;402.7;NaN;;23.402;;0 / 6;3697;2022-09-27 20:14:54:488
-0.06458;0.00508;9.76363;-0.05137;0.00837;9.80651;-0.01338;-0.00976;-0.01391;4.3E-4;5.6E-4;3.9E-4;24.6;16.092;4.42;-50.325;284.407;-0.049;0.3;5.0;52.5266;47.4791;8.211027;402.7;NaN;;23.402;;0 / 6;3707;2022-09-27 20:14:54:498
-0.06458;0.00508;9.76363;-0.05381;0.007;9.8065;-0.01027;-0.00635;-0.01295;4.3E-4;5.6E-4;3.9E-4;24.6;16.092;4.42;-50.325;284.407;-0.049;0.3;5.0;52.5266;47.4791;8.211027;402.7;NaN;;23.402;;0 / 6;3717;2022-09-27 20:14:54:508
-0.06458;0.00508;9.76363;-0.05381;0.007;9.8065;-0.01027;-0.00635;-0.01295;4.3E-4;5.6E-4;3.9E-4;24.6;15.449;3.818;-49.787;285.327;-0.041;0.314;5.0;52.5266;47.4791;8.211027;402.7;NaN;;23.402;;0 / 6;3727;2022-09-27 20:14:54:518
-0.06458;0.00508;9.76363;-0.05381;0.007;9.8065;-0.01027;-0.00635;-0.01295;4.3E-4;5.6E-4;3.9E-4;24.6;15.449;3.818;-49.787;285.327;-0.041;0.314;5.0;52.5266;47.4791;8.211027;402.7;NaN;;23.402;;0 / 6;3737;2022-09-27 20:14:54:528
-0.06458;0.00508;9.76363;-0.05381;0.007;9.8065;-0.01027;-0.00635;-0.01295;4.3E-4;5.6E-4;3.9E-4;24.6;15.449;3.818;-49.787;285.327;-0.041;0.314;5.0;52.5266;47.4791;8.211027;402.7;NaN;;23.402;;0 / 6;3749;2022-09-27 20:14:54:540
-0.06458;0.00508;9.76363;-0.05381;0.007;9.8065;-0.01027;-0.00635;-0.01295;4.3E-4;5.6E-4;3.9E-4;24.6;15.449;3.818;-49.787;285.327;-0.041;0.314;5.0;52.5266;47.4791;8.211027;402.7;NaN;;23.402;;0 / 6;3756;2022-09-27 20:14:54:547
-0.06458;0.00508;9.76363;-0.05381;0.007;9.8065;-0.01027;-0.00635;-0.01295;4.3E-4;5.6E-4;3.9E-4;24.6;15.449;3.818;-49.787;285.327;-0.041;0.314;5.0;52.5266;47.4791;8.211027;402.7;NaN;;23.402;;0 / 6;3767;2022-09-27 20:14:54:558
-0.05979;0.00268;9.75644;-0.05381;0.007;9.8065;-0.01027;-0.00635;-0.01295;1.3E-4;4.1E-4;8.0E-5;24.6;15.449;3.818;-49.787;285.327;-0.041;0.314;5.0;52.5266;47.4791;8.211027;402.7;NaN;;23.402;;0 / 6;3776;2022-09-27 20:14:54:567
-0.05979;0.00268;9.75644;-0.05381;0.007;9.8065;-0.01027;-0.00635;-0.01295;1.3E-4;4.1E-4;8.0E-5;24.6;15.449;3.818;-49.787;285.327;-0.041;0.314;5.0;52.5266;47.4791;8.211027;402.7;NaN;;23.402;;0 / 6;3787;2022-09-27 20:14:54:578
-0.05979;0.00268;9.75644;-0.05381;0.007;9.8065;-0.01027;-0.00635;-0.01295;1.3E-4;4.1E-4;8.0E-5;24.6;15.449;3.818;-49.787;285.327;-0.041;0.314;5.0;52.5266;47.4791;8.211027;402.7;NaN;;23.402;;0 / 6;3797;2022-09-27 20:14:54:588
-0.05979;0.00268;9.75644;-0.05381;0.007;9.8065;-0.01027;-0.00635;-0.01295;1.3E-4;4.1E-4;8.0E-5;24.6;15.449;3.818;-49.787;285.327;-0.041;0.314;5.0;52.5266;47.4791;8.211027;402.7;NaN;;23.402;;0 / 6;3807;2022-09-27 20:14:54:598
-0.05979;0.00268;9.75644;-0.05381;0.007;9.8065;-0.01027;-0.00635;-0.01295;1.3E-4;4.1E-4;8.0E-5;24.6;15.449;3.818;-49.787;285.327;-0.041;0.314;5.0;52.5266;47.4791;8.211027;402.7;NaN;;23.402;;0 / 6;3818;2022-09-27 20:14:54:609
-0.05979;0.00268;9.75644;-0.05381;0.007;9.8065;-0.01027;-0.00635;-0.01295;1.3E-4;4.1E-4;8.0E-5;24.6;15.449;3.818;-49.787;285.327;-0.041;0.314;5.0;52.5266;47.4791;8.211027;402.7;NaN;;23.402;;0 / 6;3827;2022-09-27 20:14:54:618
-0.05979;0.00268;9.75644;-0.05381;0.007;9.8065;-0.01027;-0.00635;-0.01295;1.3E-4;4.1E-4;8.0E-5;24.6;15.449;3.818;-49.787;285.327;-0.041;0.314;5.0;52.5266;47.4791;8.211027;402.7;NaN;;23.402;;0 / 6;3837;2022-09-27 20:14:54:628
-0.05979;0.00268;9.75644;-0.05381;0.007;9.8065;-0.01027;-0.00635;-0.01295;1.3E-4;4.1E-4;8.0E-5;24.6;15.438;4.764;-50.511;288.889;-0.041;0.314;5.0;52.5266;47.4791;8.211027;402.7;NaN;;23.402;;0 / 6;3847;2022-09-27 20:14:54:638
-0.05979;0.00268;9.75644;-0.05381;0.007;9.8065;-0.01027;-0.00635;-0.01295;1.3E-4;4.1E-4;8.0E-5;24.6;15.438;4.764;-50.511;288.889;-0.041;0.314;5.0;52.5266;47.4791;8.211027;402.7;NaN;;23.402;;0 / 6;3857;2022-09-27 20:14:54:648
-0.05979;0.00268;9.75644;-0.05381;0.007;9.8065;-0.01027;-0.00635;-0.01295;1.3E-4;4.1E-4;8.0E-5;24.6;15.438;4.764;-50.511;288.889;-0.041;0.314;5.0;52.5266;47.4791;8.211027;402.7;NaN;;23.402;;0 / 6;3867;2022-09-27 20:14:54:658
-0.05979;0.00268;9.75644;-0.05381;0.007;9.8065;-0.01027;-0.00635;-0.01295;1.3E-4;4.1E-4;8.0E-5;24.6;15.438;4.764;-50.511;288.889;-0.041;0.314;5.0;52.1421;47.4791;8.211027;402.7;NaN;;23.402;;0 / 6;3877;2022-09-27 20:14:54:668
-0.05979;0.00268;9.75644;-0.05381;0.007;9.8065;-0.01027;-0.00635;-0.01295;1.3E-4;4.1E-4;8.0E-5;24.6;15.438;4.764;-50.511;288.889;-0.041;0.314;5.0;52.1421;47.4791;8.211027;402.7;NaN;;23.402;;0 / 6;3888;2022-09-27 20:14:54:679
-0.05979;0.00268;9.75644;-0.05381;0.007;9.8065;-0.01027;-0.00635;-0.01295;1.3E-4;4.1E-4;8.0E-5;24.6;15.438;4.764;-50.511;288.889;-0.041;0.314;5.0;52.1421;47.4791;8.211027;402.7;NaN;;23.402;;0 / 6;3897;2022-09-27 20:14:54:688
-0.05979;0.00268;9.75644;-0.05543;0.00531;9.80649;-0.0073;-0.00466;-0.00801;2.8E-4;5.6E-4;2.4E-4;24.6;15.438;4.764;-50.511;288.889;-0.041;0.314;5.0;52.1421;47.4791;8.211027;402.7;NaN;;23.402;;0 / 6;3907;2022-09-27 20:14:54:698
-0.05979;-0.0045;9.75884;-0.05543;0.00531;9.80649;-0.0073;-0.00466;-0.00801;2.8E-4;5.6E-4;2.4E-4;24.6;15.438;4.764;-50.511;288.889;-0.041;0.314;5.0;52.1421;47.4791;8.211027;402.7;NaN;;23.402;;0 / 6;3917;2022-09-27 20:14:54:708
-0.05979;-0.0045;9.75884;-0.05543;0.00531;9.80649;-0.0073;-0.00466;-0.00801;2.8E-4;5.6E-4;2.4E-4;24.6;15.438;4.764;-50.511;288.889;-0.041;0.314;5.0;52.1421;47.4791;8.211027;402.7;NaN;;23.402;;0 / 6;3927;2022-09-27 20:14:54:718
-0.05979;-0.0045;9.75884;-0.05543;0.00531;9.80649;-0.0073;-0.00466;-0.00801;2.8E-4;5.6E-4;2.4E-4;24.6;15.438;4.764;-50.511;288.889;-0.041;0.314;5.0;52.1421;47.4791;8.211027;402.7;NaN;;23.402;;0 / 6;3937;2022-09-27 20:14:54:728
-0.05979;-0.0045;9.75884;-0.05543;0.00531;9.80649;-0.0073;-0.00466;-0.00801;2.8E-4;5.6E-4;2.4E-4;24.6;15.438;4.764;-50.511;288.889;-0.041;0.314;5.0;52.1421;47.4791;8.211027;402.7;NaN;;23.402;;0 / 6;3947;2022-09-27 20:14:54:738
-0.05979;-0.0045;9.75884;-0.05543;0.00531;9.80649;-0.0073;-0.00466;-0.00801;2.8E-4;5.6E-4;2.4E-4;24.6;15.438;4.764;-50.511;288.889;-0.041;0.314;5.0;52.1421;47.4791;8.211027;402.7;NaN;;23.402;;0 / 6;3958;2022-09-27 20:14:54:749
-0.05979;-0.0045;9.75884;-0.05543;0.00531;9.80649;-0.0073;-0.00466;-0.00801;2.8E-4;5.6E-4;2.4E-4;24.6;15.438;4.764;-50.511;288.889;-0.041;0.314;5.0;52.1421;47.4791;8.211027;402.7;NaN;;23.402;;0 / 6;3967;2022-09-27 20:14:54:758
-0.05979;-0.0045;9.75884;-0.05543;0.00531;9.80649;-0.0073;-0.00466;-0.00801;2.8E-4;5.6E-4;2.4E-4;24.6;15.438;4.764;-50.511;288.889;-0.041;0.314;5.0;52.1421;47.4791;8.211027;402.7;NaN;;23.402;;0 / 6;3977;2022-09-27 20:14:54:768
-0.05979;-0.0045;9.75884;-0.05543;0.00531;9.80649;-0.0073;-0.00466;-0.00801;2.8E-4;5.6E-4;2.4E-4;24.6;15.447;4.156;-50.331;285.303;-0.031;0.324;5.0;52.1421;47.4791;8.211027;402.7;NaN;;23.402;;0 / 6;3987;2022-09-27 20:14:54:778
-0.05979;-0.0045;9.75884;-0.05543;0.00531;9.80649;-0.0073;-0.00466;-0.00801;2.8E-4;5.6E-4;2.4E-4;24.6;15.447;4.156;-50.331;285.303;-0.031;0.324;5.0;52.1421;47.4791;8.211027;402.7;NaN;;23.402;;0 / 6;3997;2022-09-27 20:14:54:788
-0.05979;-0.0045;9.75884;-0.05543;0.00531;9.80649;-0.0073;-0.00466;-0.00801;2.8E-4;5.6E-4;2.4E-4;24.6;15.447;4.156;-50.331;285.303;-0.031;0.324;5.0;52.1421;47.4791;8.211027;402.7;NaN;;23.402;;0 / 6;4007;2022-09-27 20:14:54:798
-0.05979;-0.0045;9.75884;-0.05543;0.00531;9.80649;-0.0073;-0.00466;-0.00801;2.8E-4;5.6E-4;2.4E-4;24.6;15.447;4.156;-50.331;285.303;-0.031;0.324;5.0;52.1421;47.4791;8.211027;402.7;NaN;;23.402;;0 / 6;4017;2022-09-27 20:14:54:808
-0.05979;-0.0045;9.75884;-0.05543;0.00531;9.80649;-0.0073;-0.00466;-0.00801;2.8E-4;5.6E-4;2.4E-4;24.6;15.447;4.156;-50.331;285.303;-0.031;0.324;5.0;52.1421;47.4791;8.211027;402.7;NaN;;23.402;;0 / 6;4027;2022-09-27 20:14:54:818
-0.06937;2.9E-4;9.75644;-0.05674;0.00423;9.80648;-0.00807;-0.00427;-0.00964;2.8E-4;8.6E-4;5.4E-4;24.6;15.447;4.156;-50.331;285.303;-0.031;0.324;5.0;52.1421;47.4791;8.211027;402.7;NaN;;23.402;;0 / 6;4037;2022-09-27 20:14:54:828
-0.06937;2.9E-4;9.75644;-0.05674;0.00423;9.80648;-0.00807;-0.00427;-0.00964;2.8E-4;8.6E-4;5.4E-4;24.6;15.447;4.156;-50.331;285.303;-0.031;0.324;5.0;52.1421;47.4791;8.211027;402.7;NaN;;23.402;;0 / 6;4047;2022-09-27 20:14:54:838
-0.06937;2.9E-4;9.75644;-0.05674;0.00423;9.80648;-0.00807;-0.00427;-0.00964;2.8E-4;8.6E-4;5.4E-4;24.6;15.447;4.156;-50.331;285.303;-0.031;0.324;5.0;52.1421;47.4791;8.211027;402.7;NaN;;23.402;;0 / 6;4057;2022-09-27 20:14:54:848
-0.06937;2.9E-4;9.75644;-0.05674;0.00423;9.80648;-0.00807;-0.00427;-0.00964;2.8E-4;8.6E-4;5.4E-4;24.6;15.447;4.156;-50.331;285.303;-0.031;0.324;5.0;52.1421;47.4791;8.211027;402.7;NaN;;23.402;;0 / 6;4067;2022-09-27 20:14:54:858
-0.06937;2.9E-4;9.75644;-0.05674;0.00423;9.80648;-0.00807;-0.00427;-0.00964;2.8E-4;8.6E-4;5.4E-4;24.6;15.447;4.156;-50.331;285.303;-0.031;0.324;5.0;52.1421;47.4791;8.211027;402.7;NaN;;23.402;;0 / 6;4076;2022-09-27 20:14:54:867
-0.06937;2.9E-4;9.75644;-0.05674;0.00423;9.80648;-0.00807;-0.00427;-0.00964;2.8E-4;8.6E-4;5.4E-4;24.6;15.447;4.156;-50.331;285.303;-0.031;0.324;5.0;52.1421;47.4791;8.211027;402.7;NaN;;23.402;;0 / 6;4087;2022-09-27 20:14:54:878
-0.06937;2.9E-4;9.75644;-0.05674;0.00423;9.80648;-0.00807;-0.00427;-0.00964;2.8E-4;8.6E-4;5.4E-4;24.6;15.447;4.156;-50.331;285.303;-0.031;0.324;5.0;52.1421;47.4791;8.211027;402.7;NaN;;23.402;;0 / 6;4097;2022-09-27 20:14:54:888
-0.06937;2.9E-4;9.75644;-0.05674;0.00423;9.80648;-0.00807;-0.00427;-0.00964;2.8E-4;8.6E-4;5.4E-4;24.6;15.447;4.156;-50.331;285.303;-0.031;0.324;5.0;52.1421;47.4791;8.211027;402.7;NaN;;23.402;;0 / 6;4107;2022-09-27 20:14:54:898
-0.06937;2.9E-4;9.75644;-0.05674;0.00423;9.80648;-0.00807;-0.00427;-0.00964;2.8E-4;8.6E-4;5.4E-4;24.6;15.447;4.156;-50.331;285.303;-0.031;0.324;5.0;52.1421;47.4791;8.211027;402.7;NaN;;23.402;;0 / 6;4116;2022-09-27 20:14:54:907
-0.06937;2.9E-4;9.75644;-0.05674;0.00423;9.80648;-0.00807;-0.00427;-0.00964;2.8E-4;8.6E-4;5.4E-4;24.6;14.896;4.47;-50.523;285.297;-0.025;0.331;5.0;52.1421;47.4791;8.211027;402.7;NaN;;23.402;;0 / 6;4127;2022-09-27 20:14:54:918
-0.06937;2.9E-4;9.75644;-0.05674;0.00423;9.80648;-0.00807;-0.00427;-0.00964;2.8E-4;8.6E-4;5.4E-4;24.6;14.896;4.47;-50.523;285.297;-0.025;0.331;5.0;52.1421;47.4791;8.211027;402.7;NaN;;23.402;;0 / 6;4138;2022-09-27 20:14:54:929
-0.06937;2.9E-4;9.75644;-0.05674;0.00423;9.80648;-0.00807;-0.00427;-0.00964;2.8E-4;8.6E-4;5.4E-4;24.6;14.896;4.47;-50.523;285.297;-0.025;0.331;5.0;52.1421;47.4791;8.211027;402.7;NaN;;23.402;;0 / 6;4147;2022-09-27 20:14:54:938
-0.06937;2.9E-4;9.75644;-0.05674;0.00423;9.80648;-0.00807;-0.00427;-0.00964;2.8E-4;8.6E-4;5.4E-4;24.6;14.896;4.47;-50.523;285.297;-0.025;0.331;5.0;52.1421;47.4791;8.211027;402.7;NaN;;23.402;;0 / 6;4158;2022-09-27 20:14:54:949
-0.06937;2.9E-4;9.75644;-0.05674;0.00423;9.80648;-0.00807;-0.00427;-0.00964;2.8E-4;8.6E-4;5.4E-4;24.6;14.896;4.47;-50.523;285.297;-0.025;0.331;5.0;52.1421;47.4791;8.211027;402.7;NaN;;23.402;;0 / 6;4167;2022-09-27 20:14:54:958
-0.06458;-0.00211;9.75884;-0.05787;0.0034;9.80648;-0.00216;-7.1E-4;-0.01134;2.8E-4;4.1E-4;5.4E-4;24.6;14.896;4.47;-50.523;285.297;-0.025;0.331;5.0;52.1421;47.4791;8.211027;402.7;NaN;;23.402;;0 / 6;4176;2022-09-27 20:14:54:967
-0.06458;-0.00211;9.75884;-0.05787;0.0034;9.80648;-0.00216;-7.1E-4;-0.01134;2.8E-4;4.1E-4;5.4E-4;24.6;14.896;4.47;-50.523;285.297;-0.025;0.331;5.0;49.7161;47.4791;8.211027;402.7;NaN;;23.402;;0 / 6;4187;2022-09-27 20:14:54:978
-0.06458;-0.00211;9.75884;-0.05787;0.0034;9.80648;-0.00216;-7.1E-4;-0.01134;2.8E-4;4.1E-4;5.4E-4;24.6;14.896;4.47;-50.523;285.297;-0.025;0.331;5.0;49.7161;47.4791;8.211027;402.7;NaN;;23.402;;0 / 6;4197;2022-09-27 20:14:54:988
-0.06458;-0.00211;9.75884;-0.05787;0.0034;9.80648;-0.00216;-7.1E-4;-0.01134;2.8E-4;4.1E-4;5.4E-4;24.6;14.896;4.47;-50.523;285.297;-0.025;0.331;5.0;49.7161;47.4791;8.211027;402.7;NaN;;23.402;;0 / 6;4207;2022-09-27 20:14:54:998
-0.06458;-0.00211;9.75884;-0.05787;0.0034;9.80648;-0.00216;-7.1E-4;-0.01134;2.8E-4;4.1E-4;5.4E-4;24.6;14.896;4.47;-50.523;285.297;-0.025;0.331;5.0;49.7161;47.4791;8.211027;402.7;NaN;;23.402;;0 / 6;4216;2022-09-27 20:14:55:007
-0.06458;-0.00211;9.75884;-0.05787;0.0034;9.80648;-0.00216;-7.1E-4;-0.01134;2.8E-4;4.1E-4;5.4E-4;24.6;14.896;4.47;-50.523;285.297;-0.025;0.331;5.0;49.7161;47.4791;8.211027;402.7;NaN;;23.402;;0 / 6;4227;2022-09-27 20:14:55:018
-0.06458;-0.00211;9.75884;-0.05787;0.0034;9.80648;-0.00216;-7.1E-4;-0.01134;2.8E-4;4.1E-4;5.4E-4;24.6;14.896;4.47;-50.523;285.297;-0.025;0.331;5.0;49.7161;47.4791;8.211027;402.7;NaN;;23.402;;0 / 6;4237;2022-09-27 20:14:55:028
-0.06458;-0.00211;9.75884;-0.05787;0.0034;9.80648;-0.00216;-7.1E-4;-0.01134;2.8E-4;4.1E-4;5.4E-4;24.6;15.127;5.087;-50.726;288.848;-0.02;0.338;5.0;49.7161;47.4791;8.211027;402.7;NaN;;23.402;;0 / 6;4247;2022-09-27 20:14:55:038
-0.06458;-0.00211;9.75884;-0.05787;0.0034;9.80648;-0.00216;-7.1E-4;-0.01134;2.8E-4;4.1E-4;5.4E-4;24.6;15.127;5.087;-50.726;288.848;-0.02;0.338;5.0;49.7161;47.4791;8.211027;402.7;NaN;;23.402;;0 / 6;4257;2022-09-27 20:14:55:048
-0.06458;-0.00211;9.75884;-0.05787;0.0034;9.80648;-0.00216;-7.1E-4;-0.01134;2.8E-4;4.1E-4;5.4E-4;24.6;15.127;5.087;-50.726;288.848;-0.02;0.338;5.0;49.7161;47.4791;8.211027;402.7;NaN;;23.402;;0 / 6;4267;2022-09-27 20:14:55:058
-0.06458;-0.00211;9.75884;-0.05787;0.0034;9.80648;-0.00216;-7.1E-4;-0.01134;2.8E-4;4.1E-4;5.4E-4;24.6;15.127;5.087;-50.726;288.848;-0.02;0.338;5.0;49.7161;47.4791;8.211027;402.7;NaN;;23.402;;0 / 6;4279;2022-09-27 20:14:55:070
-0.06937;0.00508;9.76123;-0.05896;0.00285;9.80647;-0.00724;-0.00289;-0.00544;2.8E-4;4.1E-4;5.4E-4;24.6;15.127;5.087;-50.726;288.848;-0.02;0.338;5.0;49.7161;47.4791;8.211027;402.7;NaN;;23.402;;0 / 6;4287;2022-09-27 20:14:55:078
-0.06937;0.00508;9.76123;-0.05896;0.00285;9.80647;-0.00724;-0.00289;-0.00544;2.8E-4;4.1E-4;5.4E-4;24.6;15.127;5.087;-50.726;288.848;-0.02;0.338;5.0;49.7161;47.4791;8.211027;402.7;NaN;;23.402;;0 / 6;4297;2022-09-27 20:14:55:088
-0.06937;0.00508;9.76123;-0.05896;0.00285;9.80647;-0.00724;-0.00289;-0.00544;2.8E-4;4.1E-4;5.4E-4;24.6;15.127;5.087;-50.726;288.848;-0.02;0.338;5.0;49.7161;47.4791;8.211027;402.7;NaN;;23.402;;0 / 6;4307;2022-09-27 20:14:55:098
-0.06937;0.00508;9.76123;-0.05896;0.00285;9.80647;-0.00724;-0.00289;-0.00544;1.3E-4;7.1E-4;2.4E-4;24.6;15.127;5.087;-50.726;288.848;-0.02;0.338;5.0;49.7161;47.4791;8.211027;402.7;NaN;;23.402;;0 / 8;4324;2022-09-27 20:14:55:115
-0.06937;0.00508;9.76123;-0.05896;0.00285;9.80647;-0.00724;-0.00289;-0.00544;1.3E-4;7.1E-4;2.4E-4;24.6;15.127;5.087;-50.726;288.848;-0.02;0.338;5.0;49.7161;47.4791;8.211027;402.7;NaN;;23.402;;0 / 8;4327;2022-09-27 20:14:55:118
-0.06937;0.00508;9.76123;-0.05896;0.00285;9.80647;-0.00724;-0.00289;-0.00544;1.3E-4;7.1E-4;2.4E-4;24.6;15.127;5.087;-50.726;288.848;-0.02;0.338;5.0;49.7161;47.4791;8.211027;402.7;NaN;;23.402;;0 / 8;4337;2022-09-27 20:14:55:128
-0.06937;0.00508;9.76123;-0.05896;0.00285;9.80647;-0.00724;-0.00289;-0.00544;1.3E-4;7.1E-4;2.4E-4;24.6;15.127;5.087;-50.726;288.848;-0.02;0.338;5.0;49.7161;47.4791;8.211027;402.7;NaN;;23.402;;0 / 8;4347;2022-09-27 20:14:55:138
-0.06937;0.00508;9.76123;-0.05896;0.00285;9.80647;-0.00724;-0.00289;-0.00544;1.3E-4;7.1E-4;2.4E-4;24.6;15.127;5.087;-50.726;288.848;-0.02;0.338;5.0;49.7161;47.4791;8.211027;402.7;NaN;;23.402;;0 / 8;4357;2022-09-27 20:14:55:148
-0.06937;0.00508;9.76123;-0.05896;0.00285;9.80647;-0.00724;-0.00289;-0.00544;1.3E-4;7.1E-4;2.4E-4;24.6;15.127;5.087;-50.726;288.848;-0.02;0.338;5.0;49.7161;47.4791;8.211027;402.7;NaN;;23.402;;0 / 8;4367;2022-09-27 20:14:55:158
-0.06219;0.00747;9.75165;-0.05896;0.00285;9.80647;-0.00724;-0.00289;-0.00544;1.3E-4;7.1E-4;2.4E-4;24.6;15.127;5.087;-50.726;288.848;-0.02;0.338;5.0;49.7161;47.4791;8.211027;402.7;NaN;;23.402;;0 / 8;4377;2022-09-27 20:14:55:168
-0.06219;0.00747;9.75165;-0.05896;0.00285;9.80647;-0.00724;-0.00289;-0.00544;1.3E-4;7.1E-4;2.4E-4;24.6;15.448;4.444;-50.475;285.276;-0.017;0.344;5.0;49.7161;47.4791;8.211027;402.7;NaN;;23.402;;0 / 8;4387;2022-09-27 20:14:55:178
-0.06219;0.00747;9.75165;-0.05896;0.00285;9.80647;-0.00724;-0.00289;-0.00544;1.3E-4;7.1E-4;2.4E-4;24.6;15.448;4.444;-50.475;285.276;-0.017;0.344;5.0;49.7161;47.4791;8.211027;402.7;NaN;;23.402;;0 / 8;4397;2022-09-27 20:14:55:188
-0.06219;0.00747;9.75165;-0.05896;0.00285;9.80647;-0.00724;-0.00289;-0.00544;1.3E-4;7.1E-4;2.4E-4;24.6;15.448;4.444;-50.475;285.276;-0.017;0.344;5.0;49.7161;47.4791;8.211027;402.7;NaN;;23.402;;0 / 8;4407;2022-09-27 20:14:55:198
-0.06219;0.00747;9.75165;-0.05896;0.00285;9.80647;-0.00724;-0.00289;-0.00544;1.3E-4;7.1E-4;2.4E-4;24.6;15.448;4.444;-50.475;285.276;-0.017;0.344;5.0;49.7161;47.4791;8.211027;402.7;NaN;;23.402;;0 / 8;4417;2022-09-27 20:14:55:208
-0.06219;0.00747;9.75165;-0.05896;0.00285;9.80647;-0.00724;-0.00289;-0.00544;1.3E-4;7.1E-4;2.4E-4;24.6;15.448;4.444;-50.475;285.276;-0.017;0.344;5.0;49.7161;47.4791;8.211027;402.7;NaN;;23.402;;0 / 8;4427;2022-09-27 20:14:55:218
-0.06219;0.00747;9.75165;-0.05984;0.00237;9.80647;-0.00501;-3.6E-4;-0.00424;1.3E-4;7.1E-4;2.4E-4;24.6;15.448;4.444;-50.475;285.276;-0.017;0.344;5.0;49.7161;47.4791;8.211027;402.7;NaN;;23.402;;0 / 8;4436;2022-09-27 20:14:55:227
-0.06219;0.00747;9.75165;-0.05984;0.00237;9.80647;-0.00501;-3.6E-4;-0.00424;-2.0E-5;8.6E-4;3.9E-4;24.6;15.448;4.444;-50.475;285.276;-0.017;0.344;5.0;49.7161;47.4791;8.211027;402.7;NaN;;23.402;;0 / 8;4447;2022-09-27 20:14:55:238
-0.06219;0.00747;9.75165;-0.05984;0.00237;9.80647;-0.00501;-3.6E-4;-0.00424;-2.0E-5;8.6E-4;3.9E-4;24.6;15.448;4.444;-50.475;285.276;-0.017;0.344;5.0;49.7161;47.4791;8.211027;402.7;NaN;;23.402;;0 / 8;4457;2022-09-27 20:14:55:248
-0.06219;0.00747;9.75165;-0.05984;0.00237;9.80647;-0.00501;-3.6E-4;-0.00424;-2.0E-5;8.6E-4;3.9E-4;24.6;15.448;4.444;-50.475;285.276;-0.017;0.344;5.0;49.7161;47.4791;8.211027;402.7;NaN;;23.402;;0 / 8;4468;2022-09-27 20:14:55:259
-0.06219;0.00747;9.75165;-0.05984;0.00237;9.80647;-0.00501;-3.6E-4;-0.00424;-2.0E-5;8.6E-4;3.9E-4;24.6;15.448;4.444;-50.475;285.276;-0.017;0.344;5.0;49.7161;47.4791;8.211027;402.7;NaN;;23.402;;0 / 8;4477;2022-09-27 20:14:55:268
-0.06219;0.00747;9.75165;-0.05984;0.00237;9.80647;-0.00501;-3.6E-4;-0.00424;-2.0E-5;8.6E-4;3.9E-4;24.6;15.448;4.444;-50.475;285.276;-0.017;0.344;5.0;49.7161;47.4791;8.211027;402.7;NaN;;23.402;;0 / 8;4488;2022-09-27 20:14:55:279
-0.06458;0.00268;9.75644;-0.05984;0.00237;9.80647;-0.00501;-3.6E-4;-0.00424;-2.0E-5;8.6E-4;3.9E-4;24.6;15.448;4.444;-50.475;285.276;-0.017;0.344;5.0;49.7161;47.4791;8.211027;402.7;NaN;;23.402;;0 / 8;4497;2022-09-27 20:14:55:288
-0.06458;0.00268;9.75644;-0.05984;0.00237;9.80647;-0.00501;-3.6E-4;-0.00424;-2.0E-5;8.6E-4;3.9E-4;24.6;15.448;4.444;-50.475;285.276;-0.017;0.344;5.0;49.7161;47.4791;8.211027;402.7;NaN;;23.402;;0 / 8;4507;2022-09-27 20:14:55:298
-0.06458;0.00268;9.75644;-0.05984;0.00237;9.80647;-0.00501;-3.6E-4;-0.00424;-2.0E-5;8.6E-4;3.9E-4;24.6;15.448;4.444;-50.475;285.276;-0.017;0.344;5.0;50.3382;47.4791;8.211027;402.7;NaN;;23.402;;0 / 8;4517;2022-09-27 20:14:55:308
-0.06458;0.00268;9.75644;-0.05984;0.00237;9.80647;-0.00501;-3.6E-4;-0.00424;-2.0E-5;8.6E-4;3.9E-4;24.6;15.277;4.577;-50.379;288.834;-0.014;0.35;5.0;50.3382;47.4791;8.211027;402.7;NaN;;23.402;;0 / 8;4527;2022-09-27 20:14:55:318
-0.06458;0.00268;9.75644;-0.05984;0.00237;9.80647;-0.00501;-3.6E-4;-0.00424;-2.0E-5;8.6E-4;3.9E-4;24.6;15.277;4.577;-50.379;288.834;-0.014;0.35;5.0;50.3382;47.4791;8.211027;402.7;NaN;;23.402;;0 / 8;4537;2022-09-27 20:14:55:328
-0.06458;0.00268;9.75644;-0.05984;0.00237;9.80647;-0.00501;-3.6E-4;-0.00424;-2.0E-5;8.6E-4;3.9E-4;24.6;15.277;4.577;-50.379;288.834;-0.014;0.35;5.0;50.3382;47.4791;8.211027;402.7;NaN;;23.402;;0 / 8;4547;2022-09-27 20:14:55:338
-0.06458;0.00268;9.75644;-0.05984;0.00237;9.80647;-0.00501;-3.6E-4;-0.00424;-2.0E-5;8.6E-4;3.9E-4;24.6;15.277;4.577;-50.379;288.834;-0.014;0.35;5.0;50.3382;47.4791;8.211027;402.7;NaN;;23.402;;0 / 8;4556;2022-09-27 20:14:55:347
-0.06458;0.00268;9.75644;-0.05984;0.00237;9.80647;-0.00501;-3.6E-4;-0.00424;-2.0E-5;8.6E-4;3.9E-4;24.6;15.277;4.577;-50.379;288.834;-0.014;0.35;5.0;50.3382;47.4791;8.211027;402.7;NaN;;23.402;;0 / 8;4569;2022-09-27 20:14:55:360
-0.06458;0.00268;9.75644;-0.06059;0.00168;9.80646;-0.00427;-3.6E-4;-0.00551;-2.0E-5;8.6E-4;3.9E-4;24.6;15.277;4.577;-50.379;288.834;-0.014;0.35;5.0;50.3382;47.4791;8.211027;402.7;NaN;;23.402;;0 / 8;4577;2022-09-27 20:14:55:368
-0.06458;0.00268;9.75644;-0.06059;0.00168;9.80646;-0.00427;-3.6E-4;-0.00551;-2.0E-5;8.6E-4;3.9E-4;24.6;15.277;4.577;-50.379;288.834;-0.014;0.35;5.0;50.3382;47.4791;8.211027;402.7;NaN;;23.402;;0 / 8;4588;2022-09-27 20:14:55:379
-0.06458;0.00268;9.75644;-0.06059;0.00168;9.80646;-0.00427;-3.6E-4;-0.00551;-2.0E-5;8.6E-4;3.9E-4;24.6;15.277;4.577;-50.379;288.834;-0.014;0.35;5.0;50.3382;47.4791;8.211027;402.7;NaN;;23.402;;0 / 8;4597;2022-09-27 20:14:55:388
-0.06458;0.00268;9.75644;-0.06059;0.00168;9.80646;-0.00427;-3.6E-4;-0.00551;-2.0E-5;8.6E-4;3.9E-4;24.6;15.277;4.577;-50.379;288.834;-0.014;0.35;5.0;50.3382;47.4791;8.211027;402.7;NaN;;23.402;;0 / 8;4608;2022-09-27 20:14:55:399
-0.06458;0.00268;9.75644;-0.06059;0.00168;9.80646;-0.00427;-3.6E-4;-0.00551;-2.0E-5;8.6E-4;3.9E-4;24.6;15.277;4.577;-50.379;288.834;-0.014;0.35;5.0;50.3382;47.4791;8.211027;402.7;NaN;;23.402;;0 / 8;4617;2022-09-27 20:14:55:408
-0.06458;0.00268;9.75644;-0.06059;0.00168;9.80646;-0.00427;-3.6E-4;-0.00551;-2.0E-5;8.6E-4;3.9E-4;24.6;15.277;4.577;-50.379;288.834;-0.014;0.35;5.0;50.3382;47.4791;8.211027;402.7;NaN;;23.402;;0 / 8;4627;2022-09-27 20:14:55:418
-0.06219;-0.00211;9.75405;-0.06059;0.00168;9.80646;-0.00427;-3.6E-4;-0.00551;2.8E-4;7.1E-4;8.0E-5;24.6;15.277;4.577;-50.379;288.834;-0.014;0.35;5.0;50.3382;47.4791;8.211027;402.7;NaN;;23.402;;0 / 8;4637;2022-09-27 20:14:55:428
-0.06219;-0.00211;9.75405;-0.06059;0.00168;9.80646;-0.00427;-3.6E-4;-0.00551;2.8E-4;7.1E-4;8.0E-5;24.6;15.333;5.025;-49.397;288.818;-0.01;0.354;5.0;50.3382;47.4791;8.211027;402.7;NaN;;23.402;;0 / 8;4647;2022-09-27 20:14:55:438
-0.06219;-0.00211;9.75405;-0.06059;0.00168;9.80646;-0.00427;-3.6E-4;-0.00551;2.8E-4;7.1E-4;8.0E-5;24.6;15.333;5.025;-49.397;288.818;-0.01;0.354;5.0;50.3382;47.4791;8.211027;402.7;NaN;;23.402;;0 / 8;4657;2022-09-27 20:14:55:448
-0.06219;-0.00211;9.75405;-0.06059;0.00168;9.80646;-0.00427;-3.6E-4;-0.00551;2.8E-4;7.1E-4;8.0E-5;24.6;15.333;5.025;-49.397;288.818;-0.01;0.354;5.0;50.3382;47.4791;8.211027;402.7;NaN;;23.402;;0 / 8;4667;2022-09-27 20:14:55:458
-0.06219;-0.00211;9.75405;-0.06059;0.00168;9.80646;-0.00427;-3.6E-4;-0.00551;2.8E-4;7.1E-4;8.0E-5;24.6;15.333;5.025;-49.397;288.818;-0.01;0.354;5.0;50.3382;47.4791;8.211027;402.7;NaN;;23.402;;0 / 8;4677;2022-09-27 20:14:55:468
-0.06219;-0.00211;9.75405;-0.06059;0.00168;9.80646;-0.00427;-3.6E-4;-0.00551;2.8E-4;7.1E-4;8.0E-5;24.6;15.333;5.025;-49.397;288.818;-0.01;0.354;5.0;50.3382;47.4791;8.211027;402.7;NaN;;23.402;;0 / 8;4688;2022-09-27 20:14:55:479
-0.06219;-0.00211;9.75405;-0.06109;0.0015;9.80646;-0.00378;-1.8E-4;-0.00638;2.8E-4;7.1E-4;8.0E-5;24.6;15.333;5.025;-49.397;288.818;-0.01;0.354;5.0;50.3382;47.4791;8.211027;402.7;NaN;;23.402;;0 / 8;4697;2022-09-27 20:14:55:488
-0.06219;-0.00211;9.75405;-0.06109;0.0015;9.80646;-0.00378;-1.8E-4;-0.00638;2.8E-4;7.1E-4;8.0E-5;24.6;15.333;5.025;-49.397;288.818;-0.01;0.354;5.0;50.3382;47.4791;8.211027;402.7;NaN;;23.402;;0 / 8;4708;2022-09-27 20:14:55:499
-0.06219;-0.00211;9.75405;-0.06109;0.0015;9.80646;-0.00378;-1.8E-4;-0.00638;2.8E-4;7.1E-4;8.0E-5;24.6;15.333;5.025;-49.397;288.818;-0.01;0.354;5.0;50.3382;47.4791;8.211027;402.7;NaN;;23.402;;0 / 8;4717;2022-09-27 20:14:55:508
-0.06219;-0.00211;9.75405;-0.06109;0.0015;9.80646;-0.00378;-1.8E-4;-0.00638;2.8E-4;7.1E-4;8.0E-5;24.6;15.333;5.025;-49.397;288.818;-0.01;0.354;5.0;50.3382;47.4791;8.211027;402.7;NaN;;23.402;;0 / 8;4727;2022-09-27 20:14:55:518
-0.06219;-0.00211;9.75405;-0.06109;0.0015;9.80646;-0.00378;-1.8E-4;-0.00638;2.8E-4;7.1E-4;8.0E-5;24.6;15.333;5.025;-49.397;288.818;-0.01;0.354;5.0;50.3382;47.4791;8.211027;402.7;NaN;;23.402;;0 / 8;4737;2022-09-27 20:14:55:528
-0.06219;-0.00211;9.75405;-0.06109;0.0015;9.80646;-0.00378;-1.8E-4;-0.00638;2.8E-4;7.1E-4;8.0E-5;24.6;15.333;5.025;-49.397;288.818;-0.01;0.354;5.0;50.3382;47.4791;8.211027;402.7;NaN;;23.402;;0 / 8;4748;2022-09-27 20:14:55:539
-0.06219;-0.00211;9.75405;-0.06109;0.0015;9.80646;-0.00378;-1.8E-4;-0.00638;2.8E-4;7.1E-4;8.0E-5;24.6;15.333;5.025;-49.397;288.818;-0.01;0.354;5.0;50.3382;47.4791;8.211027;402.7;NaN;;23.402;;0 / 8;4757;2022-09-27 20:14:55:548
-0.06219;-0.00211;9.75405;-0.06109;0.0015;9.80646;-0.00378;-1.8E-4;-0.00638;2.8E-4;7.1E-4;8.0E-5;24.6;15.333;5.025;-49.397;288.818;-0.01;0.354;5.0;50.3382;47.4791;8.211027;402.7;NaN;;23.402;;0 / 8;4768;2022-09-27 20:14:55:559
-0.0574;-0.0045;9.75644;-0.06109;0.0015;9.80646;-0.00378;-1.8E-4;-0.00638;-2.0E-5;2.5E-4;2.4E-4;24.6;15.636;5.202;-49.897;287.703;-0.009;0.357;5.0;50.3382;47.4791;8.211027;402.7;NaN;;23.402;;0 / 8;4777;2022-09-27 20:14:55:568
-0.0574;-0.0045;9.75644;-0.06109;0.0015;9.80646;-0.00378;-1.8E-4;-0.00638;-2.0E-5;2.5E-4;2.4E-4;24.6;15.636;5.202;-49.897;287.703;-0.009;0.357;5.0;50.3382;47.4791;8.211027;402.7;NaN;;23.402;;0 / 8;4787;2022-09-27 20:14:55:578
-0.0574;-0.0045;9.75644;-0.06109;0.0015;9.80646;-0.00378;-1.8E-4;-0.00638;-2.0E-5;2.5E-4;2.4E-4;24.6;15.636;5.202;-49.897;287.703;-0.009;0.357;5.0;50.3382;47.4791;8.211027;402.7;NaN;;23.402;;0 / 8;4797;2022-09-27 20:14:55:588
-0.0574;-0.0045;9.75644;-0.06109;0.0015;9.80646;-0.00378;-1.8E-4;-0.00638;-2.0E-5;2.5E-4;2.4E-4;24.6;15.636;5.202;-49.897;287.703;-0.009;0.357;5.0;50.3382;47.4791;8.211027;402.7;NaN;;23.402;;0 / 8;4807;2022-09-27 20:14:55:598
-0.0574;-0.0045;9.75644;-0.06109;0.0015;9.80646;-0.00378;-1.8E-4;-0.00638;-2.0E-5;2.5E-4;2.4E-4;24.6;15.636;5.202;-49.897;287.703;-0.009;0.357;5.0;50.3382;47.4791;8.211027;402.7;NaN;;23.402;;0 / 8;4816;2022-09-27 20:14:55:607
-0.0574;-0.0045;9.75644;-0.06109;0.0015;9.80646;-0.00378;-1.8E-4;-0.00638;-2.0E-5;2.5E-4;2.4E-4;24.6;15.636;5.202;-49.897;287.703;-0.009;0.357;5.0;50.3382;47.4791;8.211027;402.7;NaN;;23.402;;0 / 8;4827;2022-09-27 20:14:55:618
-0.0574;-0.0045;9.75644;-0.06109;0.0015;9.80646;-0.00303;-0.00207;-0.00268;-2.0E-5;2.5E-4;2.4E-4;24.6;15.636;5.202;-49.897;287.703;-0.009;0.357;5.0;50.5748;47.4791;8.211027;402.7;NaN;;23.402;;0 / 8;4836;2022-09-27 20:14:55:627
-0.0574;-0.0045;9.75644;-0.06117;6.5E-4;9.80646;-0.00303;-0.00207;-0.00268;-2.0E-5;2.5E-4;2.4E-4;24.6;15.636;5.202;-49.897;287.703;-0.009;0.357;5.0;50.5748;47.4791;8.211027;402.7;NaN;;23.402;;0 / 8;4847;2022-09-27 20:14:55:638
-0.0574;-0.0045;9.75644;-0.06117;6.5E-4;9.80646;-0.00303;-0.00207;-0.00268;-2.0E-5;2.5E-4;2.4E-4;24.6;15.636;5.202;-49.897;287.703;-0.009;0.357;5.0;50.5748;47.4791;8.211027;402.7;NaN;;23.402;;0 / 8;4857;2022-09-27 20:14:55:648
-0.0574;-0.0045;9.75644;-0.06117;6.5E-4;9.80646;-0.00303;-0.00207;-0.00268;-2.0E-5;2.5E-4;2.4E-4;24.6;15.636;5.202;-49.897;287.703;-0.009;0.357;5.0;50.5748;47.4791;8.211027;402.7;NaN;;23.402;;0 / 8;4868;2022-09-27 20:14:55:659
-0.0574;-0.0045;9.75644;-0.06117;6.5E-4;9.80646;-0.00303;-0.00207;-0.00268;-2.0E-5;2.5E-4;2.4E-4;24.6;15.636;5.202;-49.897;287.703;-0.009;0.357;5.0;50.5748;47.4791;8.211027;402.7;NaN;;23.402;;0 / 8;4877;2022-09-27 20:14:55:668
-0.0574;-0.0045;9.75644;-0.06117;6.5E-4;9.80646;-0.00303;-0.00207;-0.00268;-2.0E-5;2.5E-4;2.4E-4;24.6;15.636;5.202;-49.897;287.703;-0.009;0.357;5.0;50.5748;47.4791;8.211027;402.7;NaN;;23.402;;0 / 8;4888;2022-09-27 20:14:55:679
-0.06219;-0.00211;9.75884;-0.06117;6.5E-4;9.80646;-0.00303;-0.00207;-0.00268;1.3E-4;5.6E-4;8.0E-5;24.6;15.636;5.202;-49.897;287.703;-0.009;0.357;5.0;50.5748;47.4791;8.211027;402.7;NaN;;23.402;;0 / 8;4897;2022-09-27 20:14:55:688
-0.06219;-0.00211;9.75884;-0.06117;6.5E-4;9.80646;-0.00303;-0.00207;-0.00268;1.3E-4;5.6E-4;8.0E-5;24.6;15.636;5.202;-49.897;287.703;-0.009;0.357;5.0;50.5748;47.4791;8.211027;402.7;NaN;;23.402;;0 / 8;4907;2022-09-27 20:14:55:698
-0.06219;-0.00211;9.75884;-0.06117;6.5E-4;9.80646;-0.00303;-0.00207;-0.00268;1.3E-4;5.6E-4;8.0E-5;24.6;15.636;5.202;-49.897;287.703;-0.009;0.357;5.0;50.5748;47.4791;8.211027;402.7;NaN;;23.402;;0 / 8;4917;2022-09-27 20:14:55:708
-0.06219;-0.00211;9.75884;-0.06117;6.5E-4;9.80646;-0.00303;-0.00207;-0.00268;1.3E-4;5.6E-4;8.0E-5;24.6;14.934;5.296;-50.393;288.811;-0.004;0.357;5.0;50.5748;47.4791;8.211027;402.7;NaN;;23.402;;0 / 8;4927;2022-09-27 20:14:55:718
-0.06219;-0.00211;9.75884;-0.06117;6.5E-4;9.80646;-0.00303;-0.00207;-0.00268;1.3E-4;5.6E-4;8.0E-5;24.6;14.934;5.296;-50.393;288.811;-0.004;0.357;5.0;50.5748;47.4791;8.211027;402.7;NaN;;23.402;;0 / 8;4938;2022-09-27 20:14:55:729
-0.06219;-0.00211;9.75884;-0.06117;6.5E-4;9.80646;-0.00303;-0.00207;-0.00268;1.3E-4;5.6E-4;8.0E-5;24.6;14.934;5.296;-50.393;288.811;-0.004;0.357;5.0;50.5748;47.4791;8.211027;402.7;NaN;;23.402;;0 / 8;4947;2022-09-27 20:14:55:738
-0.06219;-0.00211;9.75884;-0.06117;6.5E-4;9.80646;-0.00303;-0.00207;-0.00268;1.3E-4;5.6E-4;8.0E-5;24.6;14.934;5.296;-50.393;288.811;-0.004;0.357;5.0;50.5748;47.4791;8.211027;402.7;NaN;;23.402;;0 / 8;4957;2022-09-27 20:14:55:748
-0.06219;-0.00211;9.75884;-0.06091;5.2E-4;9.80646;-5.5E-4;-5.7E-4;-0.0026;1.3E-4;5.6E-4;8.0E-5;24.6;14.934;5.296;-50.393;288.811;-0.004;0.357;5.0;50.5748;47.4791;8.211027;402.7;NaN;;23.402;;0 / 8;4967;2022-09-27 20:14:55:758
-0.06219;-0.00211;9.75884;-0.06091;5.2E-4;9.80646;-5.5E-4;-5.7E-4;-0.0026;1.3E-4;5.6E-4;8.0E-5;24.6;14.934;5.296;-50.393;288.811;-0.004;0.357;5.0;50.5748;47.4791;8.211027;402.7;NaN;;23.402;;0 / 8;4977;2022-09-27 20:14:55:768
-0.06219;-0.00211;9.75884;-0.06091;5.2E-4;9.80646;-5.5E-4;-5.7E-4;-0.0026;1.3E-4;5.6E-4;8.0E-5;24.6;14.934;5.296;-50.393;288.811;-0.004;0.357;5.0;50.5748;47.4791;8.211027;402.7;NaN;;23.402;;0 / 8;4987;2022-09-27 20:14:55:778
-0.06219;-0.00211;9.75884;-0.06091;5.2E-4;9.80646;-5.5E-4;-5.7E-4;-0.0026;1.3E-4;5.6E-4;8.0E-5;24.6;14.934;5.296;-50.393;288.811;-0.004;0.357;5.0;50.5748;47.4791;8.211027;402.7;NaN;;23.402;;0 / 8;4998;2022-09-27 20:14:55:789
-0.06219;-0.00211;9.75884;-0.06091;5.2E-4;9.80646;-5.5E-4;-5.7E-4;-0.0026;1.3E-4;5.6E-4;8.0E-5;24.6;14.934;5.296;-50.393;288.811;-0.004;0.357;5.0;50.5748;47.4791;8.211027;402.7;NaN;;23.402;;0 / 8;5007;2022-09-27 20:14:55:798
-0.06219;-0.00211;9.75884;-0.06091;5.2E-4;9.80646;-5.5E-4;-5.7E-4;-0.0026;1.3E-4;5.6E-4;8.0E-5;24.6;14.934;5.296;-50.393;288.811;-0.004;0.357;5.0;50.5748;47.4791;8.211027;402.7;NaN;;23.402;;0 / 8;5016;2022-09-27 20:14:55:807
-0.06219;-0.00211;9.75884;-0.06091;5.2E-4;9.80646;-5.5E-4;-5.7E-4;-0.0026;1.3E-4;5.6E-4;8.0E-5;24.6;14.934;5.296;-50.393;288.811;-0.004;0.357;5.0;50.5748;47.4791;8.211027;402.7;NaN;;23.402;;0 / 8;5027;2022-09-27 20:14:55:818
-0.07177;0.00508;9.75405;-0.06091;5.2E-4;9.80646;-5.5E-4;-5.7E-4;-0.0026;2.8E-4;5.6E-4;2.4E-4;24.6;14.934;5.296;-50.393;288.811;-0.004;0.357;5.0;50.5748;47.4791;8.211027;402.7;NaN;;23.402;;0 / 8;5036;2022-09-27 20:14:55:827
-0.07177;0.00508;9.75405;-0.06091;5.2E-4;9.80646;-5.5E-4;-5.7E-4;-0.0026;2.8E-4;5.6E-4;2.4E-4;24.6;15.605;5.109;-49.831;287.685;-0.003;0.356;5.0;50.5748;47.4791;8.211027;402.7;NaN;;23.402;;0 / 8;5047;2022-09-27 20:14:55:838
-0.07177;0.00508;9.75405;-0.06091;5.2E-4;9.80646;-5.5E-4;-5.7E-4;-0.0026;2.8E-4;5.6E-4;2.4E-4;24.6;15.605;5.109;-49.831;287.685;-0.003;0.356;5.0;50.5748;47.4791;8.211027;402.7;NaN;;23.402;;0 / 8;5057;2022-09-27 20:14:55:848
-0.07177;0.00508;9.75405;-0.06091;5.2E-4;9.80646;-5.5E-4;-5.7E-4;-0.0026;2.8E-4;5.6E-4;2.4E-4;24.6;15.605;5.109;-49.831;287.685;-0.003;0.356;5.0;50.5748;47.4791;8.211027;402.7;NaN;;23.402;;0 / 8;5067;2022-09-27 20:14:55:858
-0.07177;0.00508;9.75405;-0.06091;5.2E-4;9.80646;-5.5E-4;-5.7E-4;-0.0026;2.8E-4;5.6E-4;2.4E-4;24.6;15.605;5.109;-49.831;287.685;-0.003;0.356;5.0;50.5748;47.4791;8.211027;402.7;NaN;;23.402;;0 / 8;5077;2022-09-27 20:14:55:868
-0.07177;0.00508;9.75405;-0.06091;5.2E-4;9.80646;-5.5E-4;-5.7E-4;-0.0026;2.8E-4;5.6E-4;2.4E-4;24.6;15.605;5.109;-49.831;287.685;-0.003;0.356;5.0;50.5748;47.4791;8.211027;402.7;NaN;;23.402;;0 / 8;5087;2022-09-27 20:14:55:878
-0.07177;0.00508;9.75405;-0.06091;5.2E-4;9.80646;-5.5E-4;-5.7E-4;-0.0026;2.8E-4;5.6E-4;2.4E-4;24.6;15.605;5.109;-49.831;287.685;-0.003;0.356;5.0;50.5748;47.4791;8.211027;402.7;NaN;;23.402;;0 / 8;5097;2022-09-27 20:14:55:888
-0.07177;0.00508;9.75405;-0.06091;5.2E-4;9.80646;-5.5E-4;-5.7E-4;-0.0026;2.8E-4;5.6E-4;2.4E-4;24.6;15.605;5.109;-49.831;287.685;-0.003;0.356;5.0;50.5748;47.4791;8.211027;402.7;NaN;;23.402;;0 / 8;5107;2022-09-27 20:14:55:898
-0.05979;-0.00211;9.74925;-0.06154;4.8E-4;9.80646;-0.00541;1.5E-4;-0.00192;2.8E-4;5.6E-4;2.4E-4;24.6;15.605;5.109;-49.831;287.685;-0.003;0.356;5.0;50.5748;47.4791;8.211027;402.7;NaN;;23.402;;0 / 8;5117;2022-09-27 20:14:55:908
-0.05979;-0.00211;9.74925;-0.06154;4.8E-4;9.80646;-0.00541;1.5E-4;-0.00192;2.8E-4;5.6E-4;2.4E-4;24.6;15.605;5.109;-49.831;287.685;-0.003;0.356;5.0;50.5748;47.4791;8.211027;402.7;NaN;;23.402;;0 / 8;5127;2022-09-27 20:14:55:918
-0.05979;-0.00211;9.74925;-0.06154;4.8E-4;9.80646;-0.00541;1.5E-4;-0.00192;2.8E-4;5.6E-4;2.4E-4;24.6;15.605;5.109;-49.831;287.685;-0.003;0.356;5.0;50.5748;47.4791;8.211027;402.7;NaN;;23.402;;0 / 8;5137;2022-09-27 20:14:55:928
-0.05979;-0.00211;9.74925;-0.06154;4.8E-4;9.80646;-0.00541;1.5E-4;-0.00192;2.8E-4;5.6E-4;2.4E-4;24.6;15.605;5.109;-49.831;287.685;-0.003;0.356;5.0;50.5748;47.4791;8.211027;402.7;NaN;;23.402;;0 / 8;5147;2022-09-27 20:14:55:938
-0.05979;-0.00211;9.74925;-0.06154;4.8E-4;9.80646;-0.00541;1.5E-4;-0.00192;2.8E-4;5.6E-4;2.4E-4;24.6;15.605;5.109;-49.831;287.685;-0.003;0.356;5.0;50.5748;47.4791;8.211027;402.7;NaN;;23.402;;0 / 8;5156;2022-09-27 20:14:55:947
-0.05979;-0.00211;9.74925;-0.06154;4.8E-4;9.80646;-0.00541;1.5E-4;-0.00192;2.8E-4;5.6E-4;2.4E-4;24.6;15.605;5.109;-49.831;287.685;-0.003;0.356;5.0;50.1932;47.4791;8.211027;402.7;NaN;;23.402;;0 / 8;5168;2022-09-27 20:14:55:959
-0.05979;-0.00211;9.74925;-0.06154;4.8E-4;9.80646;-0.00541;1.5E-4;-0.00192;1.3E-4;5.6E-4;2.4E-4;24.6;15.605;5.109;-49.831;287.685;-0.003;0.356;5.0;50.1932;47.4791;8.211027;402.7;NaN;;23.402;;0 / 8;5177;2022-09-27 20:14:55:968
-0.05979;-0.00211;9.74925;-0.06154;4.8E-4;9.80646;-0.00541;1.5E-4;-0.00192;1.3E-4;5.6E-4;2.4E-4;24.6;15.722;4.477;-49.631;284.314;-0.003;0.36;5.0;50.1932;47.4791;8.211027;402.7;NaN;;23.402;;0 / 8;5187;2022-09-27 20:14:55:978
-0.05979;-0.00211;9.74925;-0.06154;4.8E-4;9.80646;-0.00541;1.5E-4;-0.00192;1.3E-4;5.6E-4;2.4E-4;24.6;15.722;4.477;-49.631;284.314;-0.003;0.36;5.0;50.1932;47.4791;8.211027;402.7;NaN;;23.402;;0 / 8;5196;2022-09-27 20:14:55:987
-0.05979;-0.00211;9.74925;-0.06154;4.8E-4;9.80646;-0.00541;1.5E-4;-0.00192;1.3E-4;5.6E-4;2.4E-4;24.6;15.722;4.477;-49.631;284.314;-0.003;0.36;5.0;50.1932;47.4791;8.211027;402.7;NaN;;23.402;;0 / 8;5206;2022-09-27 20:14:55:997
-0.05979;-0.00211;9.74925;-0.06154;4.8E-4;9.80646;-0.00541;1.5E-4;-0.00192;1.3E-4;5.6E-4;2.4E-4;24.6;15.722;4.477;-49.631;284.314;-0.003;0.36;5.0;50.1932;47.4791;8.211027;402.7;NaN;;23.402;;0 / 8;5216;2022-09-27 20:14:56:007
-0.05979;-0.00211;9.74925;-0.06154;4.8E-4;9.80646;-0.00541;1.5E-4;-0.00192;1.3E-4;5.6E-4;2.4E-4;24.6;15.722;4.477;-49.631;284.314;-0.003;0.36;5.0;50.1932;47.4791;8.211027;402.7;NaN;;23.402;;0 / 8;5226;2022-09-27 20:14:56:017
-0.05979;-0.00211;9.74925;-0.06154;4.8E-4;9.80646;-0.00541;1.5E-4;-0.00192;1.3E-4;5.6E-4;2.4E-4;24.6;15.722;4.477;-49.631;284.314;-0.003;0.36;5.0;50.1932;47.4791;8.211027;402.7;NaN;;23.402;;0 / 8;5237;2022-09-27 20:14:56:028
