sep=;
ACCELEROMETER X (m/s²);ACCELEROMETER Y (m/s²);ACCELEROMETER Z (m/s²);GRAVITY X (m/s²);GRAVITY Y (m/s²);GRAVITY Z (m/s²);LINEAR ACCELERATION X (m/s²);LINEAR ACCELERATION Y (m/s²);LINEAR ACCELERATION Z (m/s²);GYROSCOPE X (rad/s);GYROSCOPE Y (rad/s);GYROSCOPE Z (rad/s);LIGHT (lux);MAGNETIC FIELD X (μT);MAGNETIC FIELD Y (μT);MAGNETIC FIELD Z (μT);ORIENTATION Z (azimuth °);ORIENTATION X (pitch °);ORIENTATION Y (roll °);PROXIMITY (m);SOUND LEVEL (dB);LOCATION Latitude : ;LOCATION Longitude : ;LOCATION Altitude ( m);LOCATION Altitude-google ( m);LOCATION Speed ( Kmh);LOCATION Accuracy ( m);LOCATION ORIENTATION (°);Satellites in range;Time since start in ms ;YYYY-MO-DD HH-MI-SS_SSS
-1.65;5.37;8.46;-0.12;4.3;8.81;-0.47;0.67;-0.43;-1.07;0.72;-0.27;31.07;-23.0;-14.0;-41.0;59.0;-32.0;-6.0;0.0;23.7;47.479;8.211;403.0;NaN;;24.331;;0 / 0;14;2022-09-27 11:16:12:662
-0.41;5.01;9.98;-0.12;4.3;8.81;-0.47;0.67;-0.43;0.08;0.46;0.57;31.07;-23.0;-14.0;-41.0;59.0;-32.0;-6.0;0.0;23.7;47.479;8.211;403.0;NaN;;24.331;;0 / 0;62;2022-09-27 11:16:12:710
-0.41;5.01;9.98;-0.12;4.3;8.81;-0.47;0.67;-0.43;0.08;0.46;0.57;31.07;-22.0;-10.0;-42.0;68.0;-26.0;1.0;0.0;23.7;47.479;8.211;403.0;NaN;;24.331;;0 / 0;109;2022-09-27 11:16:12:757
-0.43;5.34;8.14;-0.08;4.24;8.84;0.64;0.78;-1.76;0.08;0.46;0.57;31.07;-22.0;-10.0;-42.0;68.0;-26.0;1.0;0.0;23.7;47.479;8.211;403.0;NaN;;24.331;;0 / 0;157;2022-09-27 11:16:12:805
-0.43;5.34;8.14;-0.08;4.24;8.84;0.64;0.78;-1.76;-0.14;0.7;0.5;31.07;-22.0;-10.0;-42.0;68.0;-26.0;1.0;0.0;23.7;47.479;8.211;403.0;NaN;;24.331;;0 / 0;205;2022-09-27 11:16:12:853
0.11;3.2;11.95;-0.08;4.24;8.84;0.64;0.78;-1.76;-0.14;0.7;0.5;31.07;-22.0;-10.0;-42.0;68.0;-26.0;1.0;0.0;31.9;47.479;8.211;403.0;NaN;;24.331;;0 / 0;253;2022-09-27 11:16:12:901
0.11;3.2;11.95;-0.15;3.68;9.09;0.98;0.57;0.67;-0.14;0.7;0.5;31.07;-22.0;-8.0;-42.0;70.0;-22.0;1.0;0.0;31.9;47.479;8.211;403.0;NaN;;24.331;;0 / 0;301;2022-09-27 11:16:12:949
0.6;1.83;13.64;-0.15;3.68;9.09;0.98;0.57;0.67;-0.66;-0.32;-0.11;31.07;-22.0;-8.0;-42.0;70.0;-22.0;1.0;0.0;31.9;47.479;8.211;403.0;NaN;;24.331;;0 / 0;349;2022-09-27 11:16:12:997
0.6;1.83;13.64;-0.15;3.68;9.09;0.98;0.57;0.67;-0.66;-0.32;-0.11;31.07;-22.0;-8.0;-42.0;70.0;-22.0;1.0;0.0;31.9;47.479;8.211;403.0;NaN;;24.331;;0 / 0;397;2022-09-27 11:16:13:045
0.74;1.97;11.04;0.72;2.5;9.46;-0.21;-0.56;4.27;-0.25;0.78;0.15;31.07;-22.0;-8.0;-42.0;70.0;-22.0;1.0;0.0;31.9;47.479;8.211;403.0;NaN;;24.331;;0 / 0;445;2022-09-27 11:16:13:093
0.74;1.97;11.04;0.72;2.5;9.46;-0.21;-0.56;4.27;-0.25;0.78;0.15;31.07;-22.0;-8.0;-42.0;70.0;-22.0;1.0;0.0;31.9;47.479;8.211;403.0;NaN;;24.331;;0 / 0;493;2022-09-27 11:16:13:141
0.74;1.97;11.04;0.72;2.5;9.46;-0.21;-0.56;4.27;-0.25;0.78;0.15;31.07;-25.0;-1.0;-43.0;64.0;-15.0;-4.0;0.0;31.9;47.479;8.211;403.0;NaN;;24.331;;0 / 0;541;2022-09-27 11:16:13:189
0.61;1.52;9.33;0.6;1.84;9.61;-0.03;-0.21;1.68;0.0;0.09;-0.08;31.07;-25.0;-1.0;-43.0;64.0;-15.0;-4.0;0.0;28.1;47.479;8.211;403.0;NaN;;24.331;;0 / 0;588;2022-09-27 11:16:13:236
0.53;1.53;9.47;0.6;1.84;9.61;-0.03;-0.21;1.68;0.0;0.09;-0.08;31.07;-25.0;-1.0;-43.0;64.0;-15.0;-4.0;0.0;28.1;47.479;8.211;403.0;NaN;;24.331;;0 / 0;637;2022-09-27 11:16:13:285
0.53;1.53;9.47;0.6;1.84;9.61;-0.03;-0.21;1.68;0.0;0.09;-0.08;31.07;-25.0;-1.0;-43.0;64.0;-15.0;-4.0;0.0;28.1;47.479;8.211;403.0;NaN;;24.331;;0 / 0;685;2022-09-27 11:16:13:333
0.42;1.9;7.92;0.33;1.86;9.62;-0.01;-0.53;-0.89;0.26;0.22;-0.04;31.07;-23.0;0.0;-42.0;69.0;-11.0;-2.0;0.0;28.1;47.479;8.211;403.0;NaN;;24.331;;0 / 0;733;2022-09-27 11:16:13:381
0.42;1.9;7.92;0.33;1.86;9.62;-0.01;-0.53;-0.89;0.26;0.22;-0.04;31.07;-23.0;0.0;-42.0;69.0;-11.0;-2.0;0.0;28.1;47.479;8.211;403.0;NaN;;24.331;;0 / 0;780;2022-09-27 11:16:13:428
0.42;1.9;7.92;0.33;1.86;9.62;-0.01;-0.53;-0.89;0.26;0.22;-0.04;31.07;-23.0;0.0;-42.0;69.0;-11.0;-2.0;0.0;28.1;47.479;8.211;403.0;NaN;;24.331;;0 / 0;829;2022-09-27 11:16:13:477
0.56;2.64;7.23;-0.01;2.1;9.58;0.59;-0.45;-1.5;0.04;0.26;0.01;31.07;-23.0;0.0;-42.0;69.0;-11.0;-2.0;0.0;18.4;47.479;8.211;403.0;NaN;;24.331;;0 / 0;877;2022-09-27 11:16:13:525
0.56;2.64;7.23;-0.01;2.1;9.58;0.59;-0.45;-1.5;0.04;0.26;0.01;31.07;-23.0;0.0;-44.0;68.0;-12.0;0.0;0.0;18.4;47.479;8.211;403.0;NaN;;24.331;;0 / 0;924;2022-09-27 11:16:13:572
1.1;2.0;8.53;-0.32;2.36;9.51;0.9;-0.46;-0.43;0.04;0.26;0.01;31.07;-23.0;0.0;-44.0;68.0;-12.0;0.0;0.0;18.4;47.479;8.211;403.0;NaN;;24.331;;0 / 0;972;2022-09-27 11:16:13:620
1.1;2.0;8.53;-0.32;2.36;9.51;0.9;-0.46;-0.43;0.52;0.16;-0.05;31.07;-23.0;0.0;-44.0;68.0;-12.0;0.0;0.0;18.4;47.479;8.211;403.0;NaN;;24.331;;0 / 0;1020;2022-09-27 11:16:13:668
-0.08;2.63;8.07;-0.32;2.36;9.51;0.9;-0.46;-0.43;0.52;0.16;-0.05;31.07;-23.0;0.0;-44.0;68.0;-12.0;0.0;0.0;18.4;47.479;8.211;403.0;NaN;;24.331;;0 / 0;1068;2022-09-27 11:16:13:716
-0.08;2.63;8.07;-0.63;3.0;9.32;0.43;-0.14;-0.89;0.52;0.16;-0.05;31.07;-19.0;-4.0;-45.0;72.0;-14.0;2.0;0.0;18.4;47.479;8.211;403.0;NaN;;24.331;;0 / 0;1116;2022-09-27 11:16:13:764
0.83;1.27;11.65;-0.63;3.0;9.32;0.43;-0.14;-0.89;-0.11;-0.16;-0.32;31.07;-19.0;-4.0;-45.0;72.0;-14.0;2.0;0.0;18.4;47.479;8.211;403.0;NaN;;24.331;;0 / 0;1165;2022-09-27 11:16:13:813
0.83;1.27;11.65;-0.63;3.0;9.32;0.43;-0.14;-0.89;-0.11;-0.16;-0.32;31.07;-19.0;-4.0;-45.0;72.0;-14.0;2.0;0.0;21.3;47.479;8.211;403.0;NaN;;24.331;;0 / 0;1213;2022-09-27 11:16:13:861
-1.76;4.1;6.36;-0.67;3.13;9.27;0.72;-0.69;0.57;-0.11;-0.16;-0.32;31.07;-19.0;-4.0;-45.0;72.0;-14.0;2.0;0.0;21.3;47.479;8.211;403.0;NaN;;24.331;;0 / 0;1260;2022-09-27 11:16:13:908
-1.76;4.1;6.36;-0.67;3.13;9.27;0.72;-0.69;0.57;-0.51;0.03;-0.61;31.07;-19.0;-6.0;-45.0;70.0;-19.0;4.0;0.0;21.3;47.479;8.211;403.0;NaN;;24.331;;0 / 0;1309;2022-09-27 11:16:13:957
-2.15;3.09;7.6;-0.67;3.13;9.27;0.72;-0.69;0.57;-0.51;0.03;-0.61;31.07;-19.0;-6.0;-45.0;70.0;-19.0;4.0;0.0;21.3;47.479;8.211;403.0;NaN;;24.331;;0 / 0;1356;2022-09-27 11:16:14:004
-2.15;3.09;7.6;-0.88;2.77;9.37;-0.77;-0.38;0.41;-0.51;0.03;-0.61;31.07;-19.0;-6.0;-45.0;70.0;-19.0;4.0;0.0;21.3;47.479;8.211;403.0;NaN;;24.331;;0 / 0;1404;2022-09-27 11:16:14:052
-1.52;2.91;5.41;-0.88;2.77;9.37;-0.77;-0.38;0.41;-0.38;0.08;-0.6;31.07;-19.0;-6.0;-45.0;70.0;-19.0;4.0;0.0;21.3;47.479;8.211;403.0;NaN;;24.331;;0 / 0;1453;2022-09-27 11:16:14:101
-1.52;2.91;5.41;-0.88;2.77;9.37;-0.77;-0.38;0.41;-0.38;0.08;-0.6;31.07;-15.0;-7.0;-46.0;73.0;-16.0;5.0;0.0;21.3;47.479;8.211;403.0;NaN;;24.331;;0 / 0;1501;2022-09-27 11:16:14:149
-1.52;2.91;5.41;-0.88;2.77;9.37;-0.77;-0.38;0.41;-0.38;0.08;-0.6;31.07;-15.0;-7.0;-46.0;73.0;-16.0;5.0;0.0;21.3;47.479;8.211;403.0;NaN;;24.331;;0 / 0;1548;2022-09-27 11:16:14:196
-2.67;0.33;6.96;-1.39;2.12;9.47;-0.13;0.46;-4.07;-0.38;0.08;-0.6;31.07;-15.0;-7.0;-46.0;73.0;-16.0;5.0;0.0;22.6;47.479;8.211;403.0;NaN;;24.331;;0 / 0;1596;2022-09-27 11:16:14:244
-2.67;0.33;6.96;-1.39;2.12;9.47;-0.13;0.46;-4.07;0.32;3.56;-2.15;31.07;-15.0;-7.0;-46.0;73.0;-16.0;5.0;0.0;22.6;47.479;8.211;403.0;NaN;;24.331;;0 / 0;1645;2022-09-27 11:16:14:293
-1.63;-12.47;-4.34;-6.74;1.61;6.94;3.23;-5.81;-5.9;0.32;3.56;-2.15;31.07;-15.0;-7.0;-46.0;73.0;-16.0;5.0;0.0;22.6;47.479;8.211;403.0;NaN;;24.331;;0 / 0;1693;2022-09-27 11:16:14:341
-1.63;-12.47;-4.34;-6.74;1.61;6.94;3.23;-5.81;-5.9;4.11;7.82;-7.35;38.51;32.0;-8.0;-31.0;247.0;-9.0;44.0;0.0;22.6;47.479;8.211;403.0;NaN;;24.331;;0 / 0;1741;2022-09-27 11:16:14:389
-28.96;-7.48;-0.5;-9.58;-1.3;1.61;2.03;-11.35;-4.88;4.11;7.82;-7.35;38.51;32.0;-8.0;-31.0;247.0;-9.0;44.0;0.0;22.6;47.479;8.211;403.0;NaN;;24.331;;0 / 0;1789;2022-09-27 11:16:14:437
-28.96;-7.48;-0.5;-9.58;-1.3;1.61;2.03;-11.35;-4.88;4.11;7.82;-7.35;38.51;32.0;-8.0;-31.0;247.0;-9.0;44.0;0.0;22.6;47.479;8.211;403.0;NaN;;24.331;;0 / 0;1837;2022-09-27 11:16:14:485
-28.96;-7.48;-0.5;-9.58;-1.3;1.61;2.03;-11.35;-4.88;1.75;-0.81;-0.98;21.9;32.0;-8.0;-31.0;247.0;-9.0;44.0;0.0;44.0;47.479;8.211;403.0;NaN;;24.331;;0 / 0;1886;2022-09-27 11:16:14:534
-16.76;2.75;-1.99;-7.55;-6.18;0.98;-15.97;3.43;-3.78;1.75;-0.81;-0.98;21.9;46.0;13.0;-13.0;38.0;8.0;80.0;0.0;44.0;47.479;8.211;403.0;NaN;;24.331;;0 / 0;1933;2022-09-27 11:16:14:581
-16.76;2.75;-1.99;-7.55;-6.18;0.98;-15.97;3.43;-3.78;1.75;-0.81;-0.98;21.9;46.0;13.0;-13.0;38.0;8.0;80.0;0.0;44.0;47.479;8.211;403.0;NaN;;24.331;;0 / 0;1980;2022-09-27 11:16:14:628
-4.9;-2.53;-5.95;-7.55;-6.18;0.98;-15.97;3.43;-3.78;-0.95;-0.23;1.04;21.9;46.0;13.0;-13.0;38.0;8.0;80.0;0.0;44.0;47.479;8.211;403.0;NaN;;24.331;;0 / 0;2028;2022-09-27 11:16:14:676
-4.9;-2.53;-5.95;-7.96;-5.54;1.48;1.05;5.1;-6.38;-0.95;-0.23;1.04;0.0;46.0;13.0;-13.0;38.0;8.0;80.0;0.0;44.0;47.479;8.211;403.0;NaN;;24.331;;0 / 0;2077;2022-09-27 11:16:14:725
-7.85;-4.83;2.93;-7.96;-5.54;1.48;1.05;5.1;-6.38;-0.95;-0.23;1.04;0.0;47.0;7.0;-12.0;172.0;34.0;79.0;0.0;44.0;47.479;8.211;403.0;NaN;;24.331;;0 / 0;2125;2022-09-27 11:16:14:773
-7.85;-4.83;2.93;-7.96;-5.54;1.48;1.05;5.1;-6.38;0.81;1.13;0.65;0.0;47.0;7.0;-12.0;172.0;34.0;79.0;0.0;44.0;47.479;8.211;403.0;NaN;;24.331;;0 / 0;2172;2022-09-27 11:16:14:820
-4.46;-9.82;-2.32;-8.69;-4.53;0.36;0.4;0.9;2.14;0.81;1.13;0.65;0.0;47.0;7.0;-12.0;172.0;34.0;79.0;0.0;58.1;47.479;8.211;403.0;NaN;;24.331;;0 / 0;2220;2022-09-27 11:16:14:868
-4.46;-9.82;-2.32;-8.69;-4.53;0.36;0.4;0.9;2.14;-1.0;-0.12;-0.43;0.0;47.0;7.0;-12.0;172.0;34.0;79.0;0.0;58.1;47.479;8.211;403.0;NaN;;24.331;;0 / 0;2272;2022-09-27 11:16:14:920
-4.46;-9.82;-2.32;-8.69;-4.53;0.36;0.4;0.9;2.14;-1.0;-0.12;-0.43;0.0;46.0;3.0;-12.0;152.0;27.0;88.0;0.0;58.1;47.479;8.211;403.0;NaN;;24.331;;0 / 0;2316;2022-09-27 11:16:14:964
-6.96;-7.43;1.16;-8.91;-4.09;0.36;2.67;-5.17;-0.85;-1.0;-0.12;-0.43;0.0;46.0;3.0;-12.0;152.0;27.0;88.0;0.0;58.1;47.479;8.211;403.0;NaN;;24.331;;0 / 0;2364;2022-09-27 11:16:15:012
-11.82;-5.79;2.2;-8.56;-4.73;0.68;-0.3;-2.27;0.55;-0.45;-0.99;-0.74;0.0;44.0;8.0;-15.0;142.0;29.0;85.0;0.0;58.1;47.479;8.211;403.0;NaN;;24.331;;0 / 0;2413;2022-09-27 11:16:15:061
-11.82;-5.79;2.2;-8.56;-4.73;0.68;-0.3;-2.27;0.55;-0.45;-0.99;-0.74;0.0;44.0;8.0;-15.0;142.0;29.0;85.0;0.0;58.1;47.479;8.211;403.0;NaN;;24.331;;0 / 0;2460;2022-09-27 11:16:15:108
-11.82;-5.79;2.2;-8.56;-4.73;0.68;-0.3;-2.27;0.55;-0.45;-0.99;-0.74;0.0;44.0;8.0;-15.0;142.0;29.0;85.0;0.0;54.7;47.479;8.211;403.0;NaN;;24.331;;0 / 0;2509;2022-09-27 11:16:15:157
-7.83;-3.91;-0.35;-7.42;-6.31;1.11;-0.24;0.83;-1.61;-0.45;-0.99;-0.74;0.0;39.0;25.0;-14.0;131.0;40.0;81.0;0.0;54.7;47.479;8.211;403.0;NaN;;24.331;;0 / 0;2556;2022-09-27 11:16:15:204
-7.83;-3.91;-0.35;-7.42;-6.31;1.11;-0.24;0.83;-1.61;-0.05;1.46;-3.98;0.0;39.0;25.0;-14.0;131.0;40.0;81.0;0.0;54.7;47.479;8.211;403.0;NaN;;24.331;;0 / 0;2604;2022-09-27 11:16:15:252
-8.99;-4.57;2.69;-3.93;-8.83;-1.65;-4.41;1.08;-1.81;-0.05;1.46;-3.98;0.0;39.0;25.0;-14.0;131.0;40.0;81.0;0.0;54.7;47.479;8.211;403.0;NaN;;24.331;;0 / 0;2653;2022-09-27 11:16:15:301
-8.99;-4.57;2.69;-3.93;-8.83;-1.65;-4.41;1.08;-1.81;-0.05;1.46;-3.98;0.0;34.0;36.0;0.0;134.0;64.0;113.0;0.0;54.7;47.479;8.211;403.0;NaN;;24.331;;0 / 0;2701;2022-09-27 11:16:15:349
-8.99;-4.57;2.69;-3.93;-8.83;-1.65;-4.41;1.08;-1.81;-0.27;1.85;-0.06;1.0;34.0;36.0;0.0;134.0;64.0;113.0;0.0;54.7;47.479;8.211;403.0;NaN;;24.331;;0 / 0;2748;2022-09-27 11:16:15:396
-2.85;-14.06;2.49;-3.16;-8.66;-3.34;2.08;-4.33;2.89;-0.27;1.85;-0.06;1.0;34.0;36.0;0.0;134.0;64.0;113.0;0.0;54.7;47.479;8.211;403.0;NaN;;24.331;;0 / 0;2796;2022-09-27 11:16:15:444
-2.85;-14.06;2.49;-3.16;-8.66;-3.34;2.08;-4.33;2.89;-0.27;1.85;-0.06;1.0;34.0;36.0;0.0;134.0;64.0;113.0;0.0;51.3;47.479;8.211;403.0;NaN;;24.331;;0 / 0;2845;2022-09-27 11:16:15:493
-2.85;-14.06;2.49;-3.16;-8.66;-3.34;2.08;-4.33;2.89;-0.65;-0.39;0.75;1.0;34.0;36.0;0.0;134.0;64.0;113.0;0.0;51.3;47.479;8.211;403.0;NaN;;24.331;;0 / 0;2893;2022-09-27 11:16:15:541
0.49;-5.14;0.48;-3.74;-8.33;-3.57;0.01;-1.62;1.82;-0.65;-0.39;0.75;1.0;34.0;32.0;10.0;124.0;62.0;137.0;0.0;51.3;47.479;8.211;403.0;NaN;;24.331;;0 / 0;2941;2022-09-27 11:16:15:589
0.49;-5.14;0.48;-3.74;-8.33;-3.57;0.01;-1.62;1.82;0.52;-0.58;-0.1;1.0;34.0;32.0;10.0;124.0;62.0;137.0;0.0;51.3;47.479;8.211;403.0;NaN;;24.331;;0 / 0;2989;2022-09-27 11:16:15:637
0.49;-5.14;0.48;-3.74;-8.33;-3.57;0.01;-1.62;1.82;0.52;-0.58;-0.1;0.9;34.0;32.0;10.0;124.0;62.0;137.0;0.0;51.3;47.479;8.211;403.0;NaN;;24.331;;0 / 0;3036;2022-09-27 11:16:15:684
-3.22;-13.04;-6.74;-4.61;-7.97;-3.39;3.23;1.5;1.98;0.52;-0.58;-0.1;0.9;34.0;32.0;10.0;124.0;62.0;137.0;0.0;51.3;47.479;8.211;403.0;NaN;;24.331;;0 / 0;3084;2022-09-27 11:16:15:732
-3.22;-13.04;-6.74;-4.61;-7.97;-3.39;3.23;1.5;1.98;0.61;-2.08;-3.42;0.9;30.0;40.0;1.0;79.0;54.0;126.0;0.0;51.3;47.479;8.211;403.0;NaN;;24.331;;0 / 0;3133;2022-09-27 11:16:15:781
-3.22;-13.04;-6.74;-4.61;-7.97;-3.39;3.23;1.5;1.98;0.61;-2.08;-3.42;0.9;30.0;40.0;1.0;79.0;54.0;126.0;0.0;50.9;47.479;8.211;403.0;NaN;;24.331;;0 / 0;3181;2022-09-27 11:16:15:829
1.51;-14.82;3.66;-1.9;-9.53;-1.3;-4.47;-6.27;-0.25;0.61;-2.08;-3.42;0.9;30.0;40.0;1.0;79.0;54.0;126.0;0.0;50.9;47.479;8.211;403.0;NaN;;24.331;;0 / 0;3229;2022-09-27 11:16:15:877
1.51;-14.82;3.66;-1.9;-9.53;-1.3;-4.47;-6.27;-0.25;0.4;1.48;-1.42;0.9;30.0;40.0;1.0;79.0;54.0;126.0;0.0;50.9;47.479;8.211;403.0;NaN;;24.331;;0 / 0;3277;2022-09-27 11:16:15:925
-3.36;-11.78;8.15;0.75;-9.65;1.55;5.28;-0.87;-4.98;0.4;1.48;-1.42;0.9;15.0;47.0;-11.0;74.0;76.0;125.0;0.0;50.9;47.479;8.211;403.0;NaN;;24.331;;0 / 0;3325;2022-09-27 11:16:15:973
-3.36;-11.78;8.15;0.75;-9.65;1.55;5.28;-0.87;-4.98;0.4;1.48;-1.42;0.9;15.0;47.0;-11.0;74.0;76.0;125.0;0.0;50.9;47.479;8.211;403.0;NaN;;24.331;;0 / 0;3373;2022-09-27 11:16:16:021
-3.36;-11.78;8.15;0.75;-9.65;1.55;5.28;-0.87;-4.98;-0.85;-0.47;1.64;0.9;15.0;47.0;-11.0;74.0;76.0;125.0;0.0;50.9;47.479;8.211;403.0;NaN;;24.331;;0 / 0;3421;2022-09-27 11:16:16:069
3.58;-4.27;5.46;-0.18;-9.75;1.03;-0.11;-1.5;-3.82;-0.85;-0.47;1.64;0.9;15.0;47.0;-11.0;74.0;76.0;125.0;0.0;50.9;47.479;8.211;403.0;NaN;;24.331;;0 / 0;3469;2022-09-27 11:16:16:117
3.58;-4.27;5.46;-0.18;-9.75;1.03;-0.11;-1.5;-3.82;-0.85;-0.47;1.64;0.9;17.0;45.0;-12.0;236.0;84.0;10.0;0.0;45.6;47.479;8.211;403.0;NaN;;24.331;;0 / 0;3517;2022-09-27 11:16:16:165
3.58;-4.27;5.46;-0.18;-9.75;1.03;-0.11;-1.5;-3.82;0.57;-0.72;1.07;0.9;17.0;45.0;-12.0;236.0;84.0;10.0;0.0;45.6;47.479;8.211;403.0;NaN;;24.331;;0 / 0;3564;2022-09-27 11:16:16:212
-2.96;-13.26;-1.02;-0.4;-9.6;1.95;-0.02;0.76;-0.67;0.57;-0.72;1.07;0.9;17.0;45.0;-12.0;236.0;84.0;10.0;0.0;45.6;47.479;8.211;403.0;NaN;;24.331;;0 / 0;3613;2022-09-27 11:16:16:261
-2.96;-13.26;-1.02;-0.4;-9.6;1.95;-0.02;0.76;-0.67;-0.62;0.23;0.36;0.9;17.0;45.0;-12.0;236.0;84.0;10.0;0.0;45.6;47.479;8.211;403.0;NaN;;24.331;;0 / 0;3661;2022-09-27 11:16:16:309
-2.96;-13.26;-1.02;-0.4;-9.6;1.95;-0.02;0.76;-0.67;-0.62;0.23;0.36;0.9;17.0;43.0;-15.0;237.0;78.0;12.0;0.0;45.6;47.479;8.211;403.0;NaN;;24.331;;0 / 0;3709;2022-09-27 11:16:16:357
-7.3;-9.77;-0.55;-0.33;-9.67;1.63;-6.71;-1.17;-1.92;-0.62;0.23;0.36;0.9;17.0;43.0;-15.0;237.0;78.0;12.0;0.0;45.6;47.479;8.211;403.0;NaN;;24.331;;0 / 0;3757;2022-09-27 11:16:16:405
-7.3;-9.77;-0.55;-0.33;-9.67;1.63;-6.71;-1.17;-1.92;-2.05;0.79;1.25;0.8;17.0;43.0;-15.0;237.0;78.0;12.0;0.0;45.6;47.479;8.211;403.0;NaN;;24.331;;0 / 0;3805;2022-09-27 11:16:16:453
1.85;-12.56;2.87;-2.1;-9.53;-0.96;2.62;-3.32;3.06;-2.05;0.79;1.25;0.8;17.0;43.0;-15.0;237.0;78.0;12.0;0.0;39.1;47.479;8.211;403.0;NaN;;24.331;;0 / 0;3852;2022-09-27 11:16:16:500
1.85;-12.56;2.87;-2.1;-9.53;-0.96;2.62;-3.32;3.06;-2.05;0.79;1.25;0.8;26.0;41.0;-6.0;124.0;76.0;115.0;0.0;39.1;47.479;8.211;403.0;NaN;;24.331;;0 / 0;3901;2022-09-27 11:16:16:549
1.85;-12.56;2.87;-2.1;-9.53;-0.96;2.62;-3.32;3.06;-0.56;-0.08;1.63;0.8;26.0;41.0;-6.0;124.0;76.0;115.0;0.0;39.1;47.479;8.211;403.0;NaN;;24.331;;0 / 0;3949;2022-09-27 11:16:16:597
-1.9;-7.15;1.03;-4.04;-8.74;-1.87;-0.87;0.64;2.31;-0.56;-0.08;1.63;0.8;26.0;41.0;-6.0;124.0;76.0;115.0;0.0;39.1;47.479;8.211;403.0;NaN;;24.331;;0 / 0;3996;2022-09-27 11:16:16:644
-1.9;-7.15;1.03;-4.04;-8.74;-1.87;-0.87;0.64;2.31;-0.56;-0.08;1.63;0.8;26.0;41.0;-6.0;124.0;76.0;115.0;0.0;39.1;47.479;8.211;403.0;NaN;;24.331;;0 / 0;4045;2022-09-27 11:16:16:693
-1.9;-7.15;1.03;-4.04;-8.74;-1.87;-0.87;0.64;2.31;0.58;2.25;0.39;0.8;26.0;41.0;-6.0;124.0;76.0;115.0;0.0;39.1;47.479;8.211;403.0;NaN;;24.331;;0 / 0;4093;2022-09-27 11:16:16:741
2.0;-7.75;-2.01;-3.78;-8.85;-1.88;7.05;4.39;3.67;0.58;2.25;0.39;0.8;33.0;33.0;4.0;142.0;63.0;115.0;0.0;41.2;47.479;8.211;403.0;NaN;;24.331;;0 / 0;4140;2022-09-27 11:16:16:788
2.0;-7.75;-2.01;-3.78;-8.85;-1.88;7.05;4.39;3.67;-0.03;1.45;-0.1;1.2;33.0;33.0;4.0;142.0;63.0;115.0;0.0;41.2;47.479;8.211;403.0;NaN;;24.331;;0 / 0;4189;2022-09-27 11:16:16:837
0.49;-13.19;1.9;-3.78;-8.85;-1.88;7.05;4.39;3.67;-0.03;1.45;-0.1;1.2;33.0;33.0;4.0;142.0;63.0;115.0;0.0;41.2;47.479;8.211;403.0;NaN;;24.331;;0 / 0;4237;2022-09-27 11:16:16:885
0.49;-13.19;1.9;-3.39;-9.08;-1.51;-0.93;-0.1;0.99;-0.03;1.45;-0.1;1.2;33.0;33.0;4.0;142.0;63.0;115.0;0.0;41.2;47.479;8.211;403.0;NaN;;24.331;;0 / 0;4285;2022-09-27 11:16:16:933
-1.27;-10.15;-1.67;-3.39;-9.08;-1.51;-0.93;-0.1;0.99;1.26;1.58;-0.91;1.2;32.0;33.0;2.0;144.0;68.0;114.0;0.0;41.2;47.479;8.211;403.0;NaN;;24.331;;0 / 0;4333;2022-09-27 11:16:16:981
-1.27;-10.15;-1.67;-2.85;-9.31;-1.18;3.1;-6.75;3.21;1.26;1.58;-0.91;0.7;32.0;33.0;2.0;144.0;68.0;114.0;0.0;41.2;47.479;8.211;403.0;NaN;;24.331;;0 / 0;4381;2022-09-27 11:16:17:029
-1.27;-10.15;-1.67;-2.85;-9.31;-1.18;3.1;-6.75;3.21;1.26;1.58;-0.91;0.7;32.0;33.0;2.0;144.0;68.0;114.0;0.0;41.2;47.479;8.211;403.0;NaN;;24.331;;0 / 0;4429;2022-09-27 11:16:17:077
-3.27;-11.43;3.01;-1.83;-9.63;-0.43;-0.01;-2.03;-0.04;0.42;1.06;-0.54;0.7;32.0;33.0;2.0;144.0;68.0;114.0;0.0;41.4;47.479;8.211;403.0;NaN;;24.331;;0 / 0;4476;2022-09-27 11:16:17:124
-3.27;-11.43;3.01;-1.83;-9.63;-0.43;-0.01;-2.03;-0.04;0.42;1.06;-0.54;0.7;27.0;37.0;3.0;171.0;79.0;103.0;0.0;41.4;47.479;8.211;403.0;NaN;;24.331;;0 / 0;4525;2022-09-27 11:16:17:173
-3.27;-11.43;3.01;-1.83;-9.63;-0.43;-0.01;-2.03;-0.04;0.42;1.06;-0.54;0.7;27.0;37.0;3.0;171.0;79.0;103.0;0.0;41.4;47.479;8.211;403.0;NaN;;24.331;;0 / 0;4573;2022-09-27 11:16:17:221
-1.14;-9.42;-0.24;-1.56;-9.68;-0.01;-1.32;1.43;2.0;0.78;0.23;-0.26;0.7;27.0;37.0;3.0;171.0;79.0;103.0;0.0;41.4;47.479;8.211;403.0;NaN;;24.331;;0 / 0;4621;2022-09-27 11:16:17:269
-1.14;-9.42;-0.24;-1.56;-9.68;-0.01;-1.32;1.43;2.0;0.78;0.23;-0.26;0.7;27.0;37.0;3.0;171.0;79.0;103.0;0.0;41.4;47.479;8.211;403.0;NaN;;24.331;;0 / 0;4669;2022-09-27 11:16:17:317
-1.14;-9.42;-0.24;-1.56;-9.68;-0.01;-1.32;1.43;2.0;0.78;0.23;-0.26;0.7;26.0;38.0;-2.0;174.0;81.0;90.0;0.0;41.4;47.479;8.211;403.0;NaN;;24.331;;0 / 0;4717;2022-09-27 11:16:17:365
-2.78;-9.08;0.82;-1.19;-9.71;0.73;0.49;-0.14;-0.61;0.51;-0.33;-0.46;0.7;26.0;38.0;-2.0;174.0;81.0;90.0;0.0;41.4;47.479;8.211;403.0;NaN;;24.331;;0 / 0;4764;2022-09-27 11:16:17:412
-2.78;-9.08;0.82;-1.19;-9.71;0.73;0.49;-0.14;-0.61;0.51;-0.33;-0.46;0.7;26.0;38.0;-2.0;174.0;81.0;90.0;0.0;41.1;47.479;8.211;403.0;NaN;;24.331;;0 / 0;4812;2022-09-27 11:16:17:460
-5.87;-11.11;0.5;-0.63;-9.73;1.04;-0.81;0.02;-1.86;-0.29;0.6;0.13;0.7;26.0;38.0;-2.0;174.0;81.0;90.0;0.0;41.1;47.479;8.211;403.0;NaN;;24.331;;0 / 0;4861;2022-09-27 11:16:17:509
-5.87;-11.11;0.5;-0.63;-9.73;1.04;-0.81;0.02;-1.86;-0.29;0.6;0.13;0.7;24.0;39.0;-3.0;242.0;83.0;31.0;0.0;41.1;47.479;8.211;403.0;NaN;;24.331;;0 / 0;4909;2022-09-27 11:16:17:557
-5.87;-11.11;0.5;-0.63;-9.73;1.04;-0.81;0.02;-1.86;-0.29;0.6;0.13;0.6;24.0;39.0;-3.0;242.0;83.0;31.0;0.0;41.1;47.479;8.211;403.0;NaN;;24.331;;0 / 0;4957;2022-09-27 11:16:17:605
-3.0;-11.15;-0.8;-1.07;-9.75;0.09;-6.81;-1.31;-3.46;-2.2;2.82;1.21;0.6;24.0;39.0;-3.0;242.0;83.0;31.0;0.0;41.1;47.479;8.211;403.0;NaN;;24.331;;0 / 0;5005;2022-09-27 11:16:17:653
-3.0;-11.15;-0.8;-1.07;-9.75;0.09;-6.81;-1.31;-3.46;-2.2;2.82;1.21;0.6;24.0;39.0;-3.0;242.0;83.0;31.0;0.0;41.1;47.479;8.211;403.0;NaN;;24.331;;0 / 0;5052;2022-09-27 11:16:17:700
-3.0;-11.15;-0.8;-1.07;-9.75;0.09;-6.81;-1.31;-3.46;-2.2;2.82;1.21;0.6;30.0;28.0;20.0;222.0;84.0;85.0;0.0;41.2;47.479;8.211;403.0;NaN;;24.331;;0 / 0;5100;2022-09-27 11:16:17:748
-5.69;-10.82;6.88;-2.38;-9.0;-3.08;-1.25;-1.48;10.31;-2.2;2.82;1.21;0.6;30.0;28.0;20.0;222.0;84.0;85.0;0.0;41.2;47.479;8.211;403.0;NaN;;24.331;;0 / 0;5149;2022-09-27 11:16:17:797
-5.69;-10.82;6.88;-2.38;-9.0;-3.08;-1.25;-1.48;10.31;1.51;1.62;1.38;0.6;30.0;28.0;20.0;222.0;84.0;85.0;0.0;41.2;47.479;8.211;403.0;NaN;;24.331;;0 / 0;5196;2022-09-27 11:16:17:844
-0.3;-8.47;4.94;-2.38;-9.0;-3.08;-1.25;-1.48;10.31;1.51;1.62;1.38;0.6;30.0;28.0;20.0;222.0;84.0;85.0;0.0;41.2;47.479;8.211;403.0;NaN;;24.331;;0 / 0;5245;2022-09-27 11:16:17:893
-0.3;-8.47;4.94;-3.3;-8.93;-2.35;0.27;-0.14;5.41;1.51;1.62;1.38;0.6;30.0;28.0;20.0;222.0;84.0;85.0;0.0;41.2;47.479;8.211;403.0;NaN;;24.331;;0 / 0;5293;2022-09-27 11:16:17:941
1.4;-8.9;1.91;-3.3;-8.93;-2.35;0.27;-0.14;5.41;1.99;3.35;1.02;0.6;23.0;27.0;33.0;210.0;66.0;125.0;0.0;41.2;47.479;8.211;403.0;NaN;;24.331;;0 / 0;5340;2022-09-27 11:16:17:988
1.4;-8.9;1.91;-3.4;-9.1;-1.36;2.68;-0.15;1.87;1.99;3.35;1.02;0.6;23.0;27.0;33.0;210.0;66.0;125.0;0.0;41.2;47.479;8.211;403.0;NaN;;24.331;;0 / 0;5390;2022-09-27 11:16:18:038
1.4;-8.9;1.91;-3.4;-9.1;-1.36;2.68;-0.15;1.87;1.99;3.35;1.02;0.6;23.0;27.0;33.0;210.0;66.0;125.0;0.0;34.2;47.479;8.211;403.0;NaN;;24.331;;0 / 0;5437;2022-09-27 11:16:18:085
-3.69;-8.97;3.64;-3.4;-9.1;-1.36;2.68;-0.15;1.87;1.31;3.01;0.53;0.6;23.0;27.0;33.0;210.0;66.0;125.0;0.0;34.2;47.479;8.211;403.0;NaN;;24.331;;0 / 0;5485;2022-09-27 11:16:18:133
-3.69;-8.97;3.64;-3.55;-9.09;-1.0;-1.02;-0.71;2.93;1.31;3.01;0.53;0.6;5.0;38.0;28.0;271.0;68.0;112.0;0.0;34.2;47.479;8.211;403.0;NaN;;24.331;;0 / 0;5533;2022-09-27 11:16:18:181
3.54;-17.42;1.72;-3.55;-9.09;-1.0;-1.02;-0.71;2.93;0.62;1.75;-0.12;0.6;5.0;38.0;28.0;271.0;68.0;112.0;0.0;34.2;47.479;8.211;403.0;NaN;;24.331;;0 / 0;5581;2022-09-27 11:16:18:229
3.54;-17.42;1.72;-3.55;-9.09;-1.0;-1.02;-0.71;2.93;0.62;1.75;-0.12;0.6;5.0;38.0;28.0;271.0;68.0;112.0;0.0;34.2;47.479;8.211;403.0;NaN;;24.331;;0 / 0;5630;2022-09-27 11:16:18:278
3.54;-17.42;1.72;-2.99;-9.29;-1.02;5.85;-2.42;0.3;0.62;1.75;-0.12;0.6;5.0;38.0;28.0;271.0;68.0;112.0;0.0;34.2;47.479;8.211;403.0;NaN;;24.331;;0 / 0;5677;2022-09-27 11:16:18:325
-4.13;-10.93;0.4;-2.99;-9.29;-1.02;5.85;-2.42;0.3;0.7;1.91;-0.8;0.6;-3.0;40.0;25.0;288.0;71.0;109.0;0.0;34.2;47.479;8.211;403.0;NaN;;24.331;;0 / 0;5725;2022-09-27 11:16:18:373
-4.13;-10.93;0.4;-2.99;-9.29;-1.02;5.85;-2.42;0.3;0.7;1.91;-0.8;0.6;-3.0;40.0;25.0;288.0;71.0;109.0;0.0;36.9;47.479;8.211;403.0;NaN;;24.331;;0 / 0;5773;2022-09-27 11:16:18:421
-4.13;-10.93;0.4;-2.39;-9.48;-0.72;0.62;1.62;0.22;0.7;1.91;-0.8;0.6;-3.0;40.0;25.0;288.0;71.0;109.0;0.0;36.9;47.479;8.211;403.0;NaN;;24.331;;0 / 0;5821;2022-09-27 11:16:18:469
-1.95;-8.77;2.65;-2.39;-9.48;-0.72;0.62;1.62;0.22;0.68;1.34;-0.01;0.6;-3.0;40.0;25.0;288.0;71.0;109.0;0.0;36.9;47.479;8.211;403.0;NaN;;24.331;;0 / 0;5869;2022-09-27 11:16:18:517
-1.95;-8.77;2.65;-2.39;-9.48;-0.72;0.62;1.62;0.22;0.68;1.34;-0.01;0.6;-11.0;41.0;19.0;306.0;75.0;107.0;0.0;36.9;47.479;8.211;403.0;NaN;;24.331;;0 / 0;5917;2022-09-27 11:16:18:565
-1.95;-8.77;2.65;-1.74;-9.65;-0.29;-0.85;0.35;1.6;0.68;1.34;-0.01;0.6;-11.0;41.0;19.0;306.0;75.0;107.0;0.0;36.9;47.479;8.211;403.0;NaN;;24.331;;0 / 0;5966;2022-09-27 11:16:18:614
-1.22;-10.04;1.73;-1.74;-9.65;-0.29;-0.85;0.35;1.6;0.72;0.63;-0.87;0.6;-11.0;41.0;19.0;306.0;75.0;107.0;0.0;36.9;47.479;8.211;403.0;NaN;;24.331;;0 / 0;6014;2022-09-27 11:16:18:662
-1.22;-10.04;1.73;-1.0;-9.69;1.16;1.06;-0.43;-0.99;0.72;0.63;-0.87;0.6;-11.0;41.0;19.0;306.0;75.0;107.0;0.0;36.9;47.479;8.211;403.0;NaN;;24.331;;0 / 0;6061;2022-09-27 11:16:18:709
-1.22;-10.04;1.73;-1.0;-9.69;1.16;1.06;-0.43;-0.99;0.72;0.63;-0.87;0.6;-18.0;43.0;9.0;17.0;81.0;41.0;0.0;31.1;47.479;8.211;403.0;NaN;;24.331;;0 / 0;6109;2022-09-27 11:16:18:757
-0.34;-10.21;0.12;-1.0;-9.69;1.16;1.06;-0.43;-0.99;0.07;0.51;-0.38;0.6;-18.0;43.0;9.0;17.0;81.0;41.0;0.0;31.1;47.479;8.211;403.0;NaN;;24.331;;0 / 0;6157;2022-09-27 11:16:18:805
-0.34;-10.21;0.12;-0.54;-9.62;1.8;-0.69;-0.32;-2.05;0.07;0.51;-0.38;0.6;-18.0;43.0;9.0;17.0;81.0;41.0;0.0;31.1;47.479;8.211;403.0;NaN;;24.331;;0 / 0;6205;2022-09-27 11:16:18:853
-6.33;-11.06;1.1;-0.54;-9.62;1.8;-0.69;-0.32;-2.05;0.07;0.51;-0.38;0.6;-18.0;43.0;9.0;17.0;81.0;41.0;0.0;31.1;47.479;8.211;403.0;NaN;;24.331;;0 / 0;6254;2022-09-27 11:16:18:902
-6.33;-11.06;1.1;-0.54;-9.62;1.8;-0.69;-0.32;-2.05;-0.84;1.44;0.3;0.6;-22.0;42.0;7.0;42.0;79.0;17.0;0.0;31.1;47.479;8.211;403.0;NaN;;24.331;;0 / 0;6301;2022-09-27 11:16:18:949
-3.49;-11.32;-4.27;-0.61;-9.69;1.39;-5.6;-1.0;-1.39;-0.84;1.44;0.3;0.6;-22.0;42.0;7.0;42.0;79.0;17.0;0.0;31.1;47.479;8.211;403.0;NaN;;24.331;;0 / 0;6349;2022-09-27 11:16:18:997
-3.49;-11.32;-4.27;-0.61;-9.69;1.39;-5.6;-1.0;-1.39;-1.59;0.65;1.63;0.6;-22.0;42.0;7.0;42.0;79.0;17.0;0.0;35.6;47.479;8.211;403.0;NaN;;24.331;;0 / 0;6397;2022-09-27 11:16:19:045
-3.49;-11.32;-4.27;-0.61;-9.69;1.39;-5.6;-1.0;-1.39;-1.59;0.65;1.63;0.6;-22.0;42.0;7.0;42.0;79.0;17.0;0.0;35.6;47.479;8.211;403.0;NaN;;24.331;;0 / 0;6446;2022-09-27 11:16:19:094
-3.64;-12.43;4.34;-1.95;-9.52;-1.29;-2.06;-0.16;6.7;-1.59;0.65;1.63;0.6;-13.0;46.0;11.0;314.0;76.0;124.0;0.0;35.6;47.479;8.211;403.0;NaN;;24.331;;0 / 0;6493;2022-09-27 11:16:19:141
-3.64;-12.43;4.34;-1.95;-9.52;-1.29;-2.06;-0.16;6.7;-1.59;0.65;1.63;0.6;-13.0;46.0;11.0;314.0;76.0;124.0;0.0;35.6;47.479;8.211;403.0;NaN;;24.331;;0 / 0;6541;2022-09-27 11:16:19:189
-0.42;-6.71;1.88;-3.53;-8.96;-1.85;0.62;0.1;2.34;0.36;2.25;1.3;0.6;-13.0;46.0;11.0;314.0;76.0;124.0;0.0;35.6;47.479;8.211;403.0;NaN;;24.331;;0 / 0;6589;2022-09-27 11:16:19:237
-0.42;-6.71;1.88;-3.53;-8.96;-1.85;0.62;0.1;2.34;0.36;2.25;1.3;0.6;-13.0;46.0;11.0;314.0;76.0;124.0;0.0;35.6;47.479;8.211;403.0;NaN;;24.331;;0 / 0;6636;2022-09-27 11:16:19:284
-0.42;-6.71;1.88;-3.53;-8.96;-1.85;0.62;0.1;2.34;0.36;2.25;1.3;0.6;-13.0;46.0;11.0;314.0;76.0;124.0;0.0;35.6;47.479;8.211;403.0;NaN;;24.331;;0 / 0;6685;2022-09-27 11:16:19:333
-1.23;-6.95;-1.89;-3.7;-8.84;-2.07;6.7;2.35;2.17;0.74;0.2;0.11;0.6;-6.0;48.0;4.0;344.0;66.0;118.0;0.0;34.0;47.479;8.211;403.0;NaN;;24.331;;0 / 0;6733;2022-09-27 11:16:19:381
-1.23;-6.95;-1.89;-3.7;-8.84;-2.07;6.7;2.35;2.17;0.74;0.2;0.11;0.6;-6.0;48.0;4.0;344.0;66.0;118.0;0.0;34.0;47.479;8.211;403.0;NaN;;24.331;;0 / 0;6781;2022-09-27 11:16:19:429
-1.23;-6.95;-1.89;-3.7;-8.84;-2.07;6.7;2.35;2.17;0.74;0.2;0.11;0.6;-6.0;48.0;4.0;344.0;66.0;118.0;0.0;34.0;47.479;8.211;403.0;NaN;;24.331;;0 / 0;6828;2022-09-27 11:16:19:476
-3.06;-8.73;-0.58;-3.88;-8.9;-1.37;-5.31;-3.3;-2.19;0.21;0.02;0.11;0.6;-6.0;48.0;4.0;344.0;66.0;118.0;0.0;34.0;47.479;8.211;403.0;NaN;;24.331;;0 / 0;6877;2022-09-27 11:16:19:525
-3.06;-8.73;-0.58;-3.88;-8.9;-1.37;-5.31;-3.3;-2.19;0.21;0.02;0.11;0.6;-5.0;50.0;-3.0;3.0;65.0;109.0;0.0;34.0;47.479;8.211;403.0;NaN;;24.331;;0 / 0;6925;2022-09-27 11:16:19:573
-3.06;-8.73;-0.58;-3.88;-8.9;-1.37;-5.31;-3.3;-2.19;0.21;0.02;0.11;0.6;-5.0;50.0;-3.0;3.0;65.0;109.0;0.0;34.0;47.479;8.211;403.0;NaN;;24.331;;0 / 0;6973;2022-09-27 11:16:19:621
3.26;-2.84;0.06;-3.46;-9.17;-0.3;4.39;0.34;-1.1;0.36;-1.78;-0.23;0.6;-5.0;50.0;-3.0;3.0;65.0;109.0;0.0;34.0;47.479;8.211;403.0;NaN;;24.331;;0 / 0;7021;2022-09-27 11:16:19:669
3.26;-2.84;0.06;-3.46;-9.17;-0.3;4.39;0.34;-1.1;0.36;-1.78;-0.23;0.6;-5.0;50.0;-3.0;3.0;65.0;109.0;0.0;35.8;47.479;8.211;403.0;NaN;;24.331;;0 / 0;7069;2022-09-27 11:16:19:717
3.26;-2.84;0.06;-3.46;-9.17;-0.3;4.39;0.34;-1.1;0.36;-1.78;-0.23;0.6;-10.0;50.0;-6.0;11.0;69.0;95.0;0.0;35.8;47.479;8.211;403.0;NaN;;24.331;;0 / 0;7116;2022-09-27 11:16:19:764
-3.64;-7.85;1.65;-3.46;-9.17;-0.3;4.39;0.34;-1.1;1.69;-0.96;-0.55;0.6;-10.0;50.0;-6.0;11.0;69.0;95.0;0.0;35.8;47.479;8.211;403.0;NaN;;24.331;;0 / 0;7165;2022-09-27 11:16:19:813
-3.64;-7.85;1.65;-2.57;-9.45;0.47;-0.81;-1.68;4.53;1.69;-0.96;-0.55;0.6;-10.0;50.0;-6.0;11.0;69.0;95.0;0.0;35.8;47.479;8.211;403.0;NaN;;24.331;;0 / 0;7213;2022-09-27 11:16:19:861
-2.1;-9.41;2.46;-2.57;-9.45;0.47;-0.81;-1.68;4.53;1.69;-0.96;-0.55;0.6;-10.0;50.0;-6.0;11.0;69.0;95.0;0.0;35.8;47.479;8.211;403.0;NaN;;24.331;;0 / 0;7260;2022-09-27 11:16:19:908
-2.1;-9.41;2.46;-2.57;-9.45;0.47;-0.81;-1.68;4.53;0.53;-0.58;-0.66;0.6;-14.0;45.0;-11.0;30.0;75.0;80.0;0.0;35.8;47.479;8.211;403.0;NaN;;24.331;;0 / 0;7309;2022-09-27 11:16:19:957
-3.05;-9.31;-0.13;-1.98;-9.42;1.87;1.04;-0.36;-0.92;0.53;-0.58;-0.66;0.6;-14.0;45.0;-11.0;30.0;75.0;80.0;0.0;35.8;47.479;8.211;403.0;NaN;;24.331;;0 / 2;7356;2022-09-27 11:16:20:004
-3.05;-9.31;-0.13;-1.98;-9.42;1.87;1.04;-0.36;-0.92;-0.18;-0.84;-0.01;0.6;-14.0;45.0;-11.0;30.0;75.0;80.0;0.0;28.3;47.479;8.211;403.0;NaN;;24.331;;0 / 2;7405;2022-09-27 11:16:20:053
-7.78;-10.5;0.11;-1.06;-9.48;2.28;-4.01;-0.36;-1.71;-0.18;-0.84;-0.01;0.6;-14.0;45.0;-11.0;30.0;75.0;80.0;0.0;28.3;47.479;8.211;403.0;NaN;;24.331;;0 / 2;7453;2022-09-27 11:16:20:101
-7.78;-10.5;0.11;-1.06;-9.48;2.28;-4.01;-0.36;-1.71;-0.18;-0.84;-0.01;0.6;-17.0;49.0;-3.0;45.0;75.0;25.0;0.0;28.3;47.479;8.211;403.0;NaN;;24.331;;0 / 2;7501;2022-09-27 11:16:20:149
-7.78;-10.5;0.11;-1.06;-9.48;2.28;-4.01;-0.36;-1.71;-2.74;-0.9;2.51;0.6;-17.0;49.0;-3.0;45.0;75.0;25.0;0.0;28.3;47.479;8.211;403.0;NaN;;24.331;;0 / 2;7548;2022-09-27 11:16:20:196
2.15;-17.04;3.54;-2.56;-9.44;0.67;-1.18;-2.69;-5.74;-2.74;-0.9;2.51;0.6;-17.0;49.0;-3.0;45.0;75.0;25.0;0.0;28.3;47.479;8.211;403.0;NaN;;24.331;;0 / 2;7597;2022-09-27 11:16:20:245
2.15;-17.04;3.54;-2.56;-9.44;0.67;-1.18;-2.69;-5.74;-2.74;-0.9;2.51;0.6;-17.0;49.0;-3.0;45.0;75.0;25.0;0.0;28.3;47.479;8.211;403.0;NaN;;24.331;;0 / 2;7645;2022-09-27 11:16:20:293
2.15;-17.04;3.54;-2.56;-9.44;0.67;-1.18;-2.69;-5.74;-1.02;-0.33;1.06;0.6;-17.0;49.0;-3.0;45.0;75.0;25.0;0.0;28.3;47.479;8.211;403.0;NaN;;24.331;;0 / 2;7693;2022-09-27 11:16:20:341
-1.08;-6.4;-1.78;-4.65;-8.62;-0.46;3.81;0.17;0.41;-1.02;-0.33;1.06;0.6;4.0;47.0;14.0;310.0;74.0;75.0;0.0;38.0;47.479;8.211;403.0;NaN;;24.331;;0 / 2;7741;2022-09-27 11:16:20:389
-1.08;-6.4;-1.78;-4.65;-8.62;-0.46;3.81;0.17;0.41;-1.02;-0.33;1.06;0.6;4.0;47.0;14.0;310.0;74.0;75.0;0.0;38.0;47.479;8.211;403.0;NaN;;24.331;;0 / 2;7789;2022-09-27 11:16:20:437
-1.08;-6.4;-1.78;-4.65;-8.62;-0.46;3.81;0.17;0.41;0.25;-0.11;-0.59;0.6;4.0;47.0;14.0;310.0;74.0;75.0;0.0;38.0;47.479;8.211;403.0;NaN;;24.331;;0 / 2;7838;2022-09-27 11:16:20:486
0.64;-9.46;-0.73;-4.66;-8.44;-1.81;6.32;3.7;3.81;0.25;-0.11;-0.59;0.6;4.0;47.0;14.0;310.0;74.0;75.0;0.0;38.0;47.479;8.211;403.0;NaN;;24.331;;0 / 2;7885;2022-09-27 11:16:20:533
0.64;-9.46;-0.73;-4.66;-8.44;-1.81;6.32;3.7;3.81;0.25;-0.11;-0.59;0.6;0.0;48.0;15.0;325.0;59.0;111.0;0.0;38.0;47.479;8.211;403.0;NaN;;24.331;;0 / 2;7933;2022-09-27 11:16:20:581
-3.5;-8.52;-2.38;-3.99;-8.94;-0.63;-8.03;-3.61;-6.24;-0.32;-0.62;-0.23;0.6;0.0;48.0;15.0;325.0;59.0;111.0;0.0;38.0;47.479;8.211;403.0;NaN;;24.331;;0 / 2;7982;2022-09-27 11:16:20:630
-3.5;-8.52;-2.38;-3.99;-8.94;-0.63;-8.03;-3.61;-6.24;-0.32;-0.62;-0.23;0.6;0.0;48.0;15.0;325.0;59.0;111.0;0.0;43.2;47.479;8.211;403.0;NaN;;24.331;;0 / 2;8029;2022-09-27 11:16:20:677
-3.5;-8.52;-2.38;-3.99;-8.94;-0.63;-8.03;-3.61;-6.24;-0.32;-0.62;-0.23;0.6;0.0;48.0;15.0;325.0;59.0;111.0;0.0;43.2;47.479;8.211;403.0;NaN;;24.331;;0 / 2;8077;2022-09-27 11:16:20:725
2.33;-8.61;-0.44;-3.69;-9.08;0.26;2.38;-2.37;1.97;0.48;-1.92;-0.24;0.6;0.0;49.0;16.0;319.0;66.0;99.0;0.0;43.2;47.479;8.211;403.0;NaN;;24.331;;0 / 2;8124;2022-09-27 11:16:20:772
2.33;-8.61;-0.44;-3.69;-9.08;0.26;2.38;-2.37;1.97;0.48;-1.92;-0.24;0.6;0.0;49.0;16.0;319.0;66.0;99.0;0.0;43.2;47.479;8.211;403.0;NaN;;24.331;;0 / 2;8173;2022-09-27 11:16:20:821
2.33;-8.61;-0.44;-3.69;-9.08;0.26;2.38;-2.37;1.97;0.48;-1.92;-0.24;0.6;0.0;49.0;16.0;319.0;66.0;99.0;0.0;43.2;47.479;8.211;403.0;NaN;;24.331;;0 / 2;8221;2022-09-27 11:16:20:869
-2.26;-6.34;3.11;-2.07;-9.54;0.94;-1.12;-0.8;3.55;0.48;-1.92;-0.24;0.6;0.0;49.0;16.0;319.0;66.0;99.0;0.0;43.2;47.479;8.211;403.0;NaN;;24.331;;0 / 2;8269;2022-09-27 11:16:20:917
-2.26;-6.34;3.11;-2.07;-9.54;0.94;-1.12;-0.8;3.55;0.48;-1.92;-0.24;0.6;-4.0;48.0;13.0;333.0;77.0;66.0;0.0;43.2;47.479;8.211;403.0;NaN;;24.331;;0 / 2;8317;2022-09-27 11:16:20:965
-3.32;-12.23;-5.44;-2.07;-9.54;0.94;-1.12;-0.8;3.55;0.66;-2.96;0.37;0.6;-4.0;48.0;13.0;333.0;77.0;66.0;0.0;45.8;47.479;8.211;403.0;NaN;;24.331;;0 / 2;8364;2022-09-27 11:16:21:012
-3.32;-12.23;-5.44;-1.72;-9.46;1.94;-1.72;-1.0;-4.01;0.66;-2.96;0.37;0.7;-4.0;48.0;13.0;333.0;77.0;66.0;0.0;45.8;47.479;8.211;403.0;NaN;;24.331;;0 / 2;8414;2022-09-27 11:16:21:062
-3.5;-9.08;0.06;-1.72;-9.46;1.94;-1.72;-1.0;-4.01;0.37;-1.57;-0.24;0.7;-4.0;48.0;13.0;333.0;77.0;66.0;0.0;45.8;47.479;8.211;403.0;NaN;;24.331;;0 / 2;8461;2022-09-27 11:16:21:109
-3.5;-9.08;0.06;-1.72;-9.46;1.94;-1.72;-1.0;-4.01;0.37;-1.57;-0.24;0.7;0.0;50.0;11.0;341.0;75.0;42.0;0.0;45.8;47.479;8.211;403.0;NaN;;24.331;;0 / 2;8508;2022-09-27 11:16:21:156
-3.5;-9.08;0.06;-1.72;-9.46;1.94;-1.72;-1.0;-4.01;0.37;-1.57;-0.24;0.9;0.0;50.0;11.0;341.0;75.0;42.0;0.0;45.8;47.479;8.211;403.0;NaN;;24.331;;0 / 2;8557;2022-09-27 11:16:21:205
-3.68;-11.28;1.75;-1.18;-9.49;2.19;-1.34;0.51;-2.46;-0.29;-1.0;-0.17;0.9;0.0;50.0;11.0;341.0;75.0;42.0;0.0;45.8;47.479;8.211;403.0;NaN;;24.331;;0 / 2;8604;2022-09-27 11:16:21:252
-3.68;-11.28;1.75;-1.18;-9.49;2.19;-1.34;0.51;-2.46;-0.29;-1.0;-0.17;0.9;0.0;50.0;11.0;341.0;75.0;42.0;0.0;45.8;47.479;8.211;403.0;NaN;;24.331;;0 / 2;8653;2022-09-27 11:16:21:301
-3.68;-11.28;1.75;-1.18;-9.49;2.19;-1.34;0.51;-2.46;-0.29;-1.0;-0.17;0.9;5.0;47.0;17.0;333.0;75.0;28.0;0.0;41.3;47.479;8.211;403.0;NaN;;24.331;;0 / 2;8701;2022-09-27 11:16:21:349
0.26;-12.43;1.56;-1.05;-9.56;1.91;-5.15;-0.71;-1.55;-2.64;-1.39;1.73;0.9;5.0;47.0;17.0;333.0;75.0;28.0;0.0;41.3;47.479;8.211;403.0;NaN;;24.331;;0 / 2;8749;2022-09-27 11:16:21:397
0.26;-12.43;1.56;-1.05;-9.56;1.91;-5.15;-0.71;-1.55;-2.64;-1.39;1.73;0.9;5.0;47.0;17.0;333.0;75.0;28.0;0.0;41.3;47.479;8.211;403.0;NaN;;24.331;;0 / 2;8797;2022-09-27 11:16:21:445
0.26;-12.43;1.56;-1.05;-9.56;1.91;-5.15;-0.71;-1.55;-2.64;-1.39;1.73;0.9;5.0;47.0;17.0;333.0;75.0;28.0;0.0;41.3;47.479;8.211;403.0;NaN;;24.331;;0 / 2;8845;2022-09-27 11:16:21:493
-4.64;-7.69;0.62;-3.12;-9.29;-0.48;3.34;-2.67;2.63;-0.6;0.33;1.18;0.9;5.0;47.0;17.0;333.0;75.0;28.0;0.0;41.3;47.479;8.211;403.0;NaN;;24.331;;0 / 2;8893;2022-09-27 11:16:21:541
-4.64;-7.69;0.62;-3.12;-9.29;-0.48;3.34;-2.67;2.63;-0.6;0.33;1.18;0.9;22.0;36.0;27.0;241.0;71.0;99.0;0.0;41.3;47.479;8.211;403.0;NaN;;24.331;;0 / 2;8941;2022-09-27 11:16:21:589
1.27;-5.47;0.64;-4.35;-8.69;-1.33;2.12;1.98;1.42;-0.6;0.33;1.18;0.9;22.0;36.0;27.0;241.0;71.0;99.0;0.0;41.3;47.479;8.211;403.0;NaN;;24.331;;0 / 2;8989;2022-09-27 11:16:21:637
1.27;-5.47;0.64;-4.35;-8.69;-1.33;2.12;1.98;1.42;0.76;1.63;-0.26;0.9;22.0;36.0;27.0;241.0;71.0;99.0;0.0;38.0;47.479;8.211;403.0;NaN;;24.331;;0 / 2;9037;2022-09-27 11:16:21:685
-11.6;-12.02;-11.66;-4.35;-8.69;-1.33;2.12;1.98;1.42;0.76;1.63;-0.26;0.9;22.0;36.0;27.0;241.0;71.0;99.0;0.0;38.0;47.479;8.211;403.0;NaN;;24.331;;0 / 2;9084;2022-09-27 11:16:21:732
-11.6;-12.02;-11.66;-3.46;-9.04;-1.55;1.53;0.68;-2.73;0.39;0.78;0.6;0.9;12.0;38.0;31.0;269.0;62.0;107.0;0.0;38.0;47.479;8.211;403.0;NaN;;24.331;;0 / 2;9133;2022-09-27 11:16:21:781
1.16;-6.21;1.1;-3.46;-9.04;-1.55;1.53;0.68;-2.73;0.39;0.78;0.6;0.9;12.0;38.0;31.0;269.0;62.0;107.0;0.0;38.0;47.479;8.211;403.0;NaN;;24.331;;0 / 2;9181;2022-09-27 11:16:21:829
1.16;-6.21;1.1;-3.46;-9.04;-1.55;1.53;0.68;-2.73;0.39;0.78;0.6;0.9;12.0;38.0;31.0;269.0;62.0;107.0;0.0;38.0;47.479;8.211;403.0;NaN;;24.331;;0 / 2;9229;2022-09-27 11:16:21:877
1.16;-6.21;1.1;-3.7;-8.97;-1.42;4.64;0.79;2.18;0.22;0.25;-0.58;0.9;12.0;38.0;31.0;269.0;62.0;107.0;0.0;38.0;47.479;8.211;403.0;NaN;;24.331;;0 / 2;9277;2022-09-27 11:16:21:925
0.87;-5.87;1.89;-3.7;-8.97;-1.42;4.64;0.79;2.18;0.22;0.25;-0.58;0.9;9.0;43.0;27.0;272.0;66.0;111.0;0.0;38.0;47.479;8.211;403.0;NaN;;24.331;;0 / 2;9325;2022-09-27 11:16:21:973
0.87;-5.87;1.89;-3.7;-8.97;-1.42;4.64;0.79;2.18;0.22;0.25;-0.58;0.9;9.0;43.0;27.0;272.0;66.0;111.0;0.0;42.5;47.479;8.211;403.0;NaN;;24.331;;0 / 2;9373;2022-09-27 11:16:22:021
0.87;-5.87;1.89;-2.69;-9.35;-1.2;2.9;2.14;2.67;0.4;0.77;-0.79;0.9;9.0;43.0;27.0;272.0;66.0;111.0;0.0;42.5;47.479;8.211;403.0;NaN;;24.331;;0 / 2;9421;2022-09-27 11:16:22:069
-2.62;-8.45;0.34;-2.69;-9.35;-1.2;2.9;2.14;2.67;0.4;0.77;-0.79;0.9;9.0;43.0;27.0;272.0;66.0;111.0;0.0;42.5;47.479;8.211;403.0;NaN;;24.331;;0 / 2;9470;2022-09-27 11:16:22:118
-2.62;-8.45;0.34;-2.69;-9.35;-1.2;2.9;2.14;2.67;0.4;0.77;-0.79;0.9;-1.0;46.0;24.0;283.0;73.0;114.0;0.0;42.5;47.479;8.211;403.0;NaN;;24.331;;0 / 2;9517;2022-09-27 11:16:22:165
-2.62;-8.45;0.34;-1.76;-9.64;-0.44;-0.82;0.71;1.08;0.4;0.77;-0.79;0.9;-1.0;46.0;24.0;283.0;73.0;114.0;0.0;42.5;47.479;8.211;403.0;NaN;;24.331;;0 / 2;9566;2022-09-27 11:16:22:214
-1.52;-8.46;1.49;-1.76;-9.64;-0.44;-0.82;0.71;1.08;1.51;1.48;-0.92;0.9;-1.0;46.0;24.0;283.0;73.0;114.0;0.0;42.5;47.479;8.211;403.0;NaN;;24.331;;0 / 2;9613;2022-09-27 11:16:22:261
-1.52;-8.46;1.49;-0.83;-9.7;1.2;-0.41;1.07;-0.66;1.51;1.48;-0.92;0.9;-1.0;46.0;24.0;283.0;73.0;114.0;0.0;32.5;47.479;8.211;403.0;NaN;;24.331;;0 / 2;9660;2022-09-27 11:16:22:308
-1.52;-8.46;1.49;-0.83;-9.7;1.2;-0.41;1.07;-0.66;1.51;1.48;-0.92;0.9;-10.0;48.0;11.0;5.0;81.0;35.0;0.0;32.5;47.479;8.211;403.0;NaN;;24.331;;0 / 2;9710;2022-09-27 11:16:22:358
0.01;-10.88;1.2;-0.83;-9.7;1.2;-0.41;1.07;-0.66;0.37;0.72;-0.44;0.9;-10.0;48.0;11.0;5.0;81.0;35.0;0.0;32.5;47.479;8.211;403.0;NaN;;24.331;;0 / 2;9757;2022-09-27 11:16:22:405
0.01;-10.88;1.2;-0.36;-9.68;1.5;-0.06;-1.68;-0.81;0.37;0.72;-0.44;0.9;-10.0;48.0;11.0;5.0;81.0;35.0;0.0;32.5;47.479;8.211;403.0;NaN;;24.331;;0 / 2;9805;2022-09-27 11:16:22:453
-6.76;-10.29;-0.46;-0.36;-9.68;1.5;-0.06;-1.68;-0.81;-0.41;0.84;0.11;0.9;-10.0;48.0;11.0;5.0;81.0;35.0;0.0;32.5;47.479;8.211;403.0;NaN;;24.331;;0 / 2;9853;2022-09-27 11:16:22:501
-6.76;-10.29;-0.46;-0.36;-9.68;1.5;-0.06;-1.68;-0.81;-0.41;0.84;0.11;0.9;-15.0;48.0;10.0;31.0;81.0;13.0;0.0;32.5;47.479;8.211;403.0;NaN;;24.331;;0 / 2;9901;2022-09-27 11:16:22:549
-6.76;-10.29;-0.46;-0.36;-9.68;1.5;-0.06;-1.68;-0.81;-0.41;0.84;0.11;0.9;-15.0;48.0;10.0;31.0;81.0;13.0;0.0;32.5;47.479;8.211;403.0;NaN;;24.331;;0 / 2;9948;2022-09-27 11:16:22:596
-3.71;-8.77;-0.35;-0.89;-9.75;0.5;-5.32;-1.16;-2.04;-1.69;1.92;1.2;0.9;-15.0;48.0;10.0;31.0;81.0;13.0;0.0;36.4;47.479;8.211;403.0;NaN;;24.331;;0 / 2;9997;2022-09-27 11:16:22:645
-3.71;-8.77;-0.35;-0.89;-9.75;0.5;-5.32;-1.16;-2.04;-1.69;1.92;1.2;0.7;-15.0;48.0;10.0;31.0;81.0;13.0;0.0;36.4;47.479;8.211;403.0;NaN;;24.331;;0 / 2;10045;2022-09-27 11:16:22:693
-6.25;-12.14;6.4;-0.89;-9.75;0.5;-5.32;-1.16;-2.04;-1.69;1.92;1.2;0.7;-15.0;48.0;10.0;31.0;81.0;13.0;0.0;36.4;47.479;8.211;403.0;NaN;;24.331;;0 / 2;10092;2022-09-27 11:16:22:740
-6.25;-12.14;6.4;-2.51;-9.28;-1.94;-2.63;-0.21;5.74;1.28;1.61;1.68;0.7;-10.0;45.0;19.0;333.0;84.0;61.0;0.0;36.4;47.479;8.211;403.0;NaN;;24.331;;0 / 2;10140;2022-09-27 11:16:22:788
-2.89;-10.11;2.91;-2.51;-9.28;-1.94;-2.63;-0.21;5.74;1.28;1.61;1.68;0.7;-10.0;45.0;19.0;333.0;84.0;61.0;0.0;36.4;47.479;8.211;403.0;NaN;;24.331;;0 / 2;10189;2022-09-27 11:16:22:837
-2.89;-10.11;2.91;-4.05;-8.76;-1.71;0.09;-0.79;5.11;1.28;1.61;1.68;0.7;-10.0;45.0;19.0;333.0;84.0;61.0;0.0;36.4;47.479;8.211;403.0;NaN;;24.331;;0 / 2;10237;2022-09-27 11:16:22:885
-0.54;-8.57;4.19;-4.05;-8.76;-1.71;0.09;-0.79;5.11;2.11;3.38;1.1;0.7;-10.0;45.0;19.0;333.0;84.0;61.0;0.0;36.4;47.479;8.211;403.0;NaN;;24.331;;0 / 2;10285;2022-09-27 11:16:22:933
-0.54;-8.57;4.19;-4.2;-8.7;-1.7;4.06;-0.69;8.15;2.11;3.38;1.1;0.7;-3.0;50.0;2.0;353.0;63.0;113.0;0.0;37.6;47.479;8.211;403.0;NaN;;24.331;;0 / 2;10332;2022-09-27 11:16:22:980
-2.76;-10.39;2.37;-4.2;-8.7;-1.7;4.06;-0.69;8.15;1.72;3.38;0.36;0.7;-3.0;50.0;2.0;353.0;63.0;113.0;0.0;37.6;47.479;8.211;403.0;NaN;;24.331;;0 / 2;10381;2022-09-27 11:16:23:029
-2.76;-10.39;2.37;-4.2;-8.7;-1.7;4.06;-0.69;8.15;1.72;3.38;0.36;0.7;-3.0;50.0;2.0;353.0;63.0;113.0;0.0;37.6;47.479;8.211;403.0;NaN;;24.331;;0 / 2;10430;2022-09-27 11:16:23:078
-3.1;-8.38;1.26;-4.31;-8.75;-1.0;1.41;-1.65;3.14;1.72;3.38;0.36;0.7;-3.0;50.0;2.0;353.0;63.0;113.0;0.0;37.6;47.479;8.211;403.0;NaN;;24.331;;0 / 2;10477;2022-09-27 11:16:23:125
-3.1;-8.38;1.26;-4.31;-8.75;-1.0;1.41;-1.65;3.14;1.72;3.38;0.36;0.7;7.0;47.0;-13.0;39.0;63.0;103.0;0.0;37.6;47.479;8.211;403.0;NaN;;24.331;;0 / 2;10525;2022-09-27 11:16:23:173
-3.1;-8.38;1.26;-4.31;-8.75;-1.0;1.41;-1.65;3.14;1.61;1.86;-0.29;0.7;7.0;47.0;-13.0;39.0;63.0;103.0;0.0;37.6;47.479;8.211;403.0;NaN;;24.331;;0 / 2;10573;2022-09-27 11:16:23:221
-5.18;-9.92;-0.07;-4.1;-8.9;-0.27;1.51;0.31;1.36;1.61;1.86;-0.29;0.7;7.0;47.0;-13.0;39.0;63.0;103.0;0.0;37.6;47.479;8.211;403.0;NaN;;24.331;;0 / 2;10620;2022-09-27 11:16:23:268
-5.18;-9.92;-0.07;-4.1;-8.9;-0.27;1.51;0.31;1.36;0.63;1.83;-0.6;0.7;7.0;47.0;-13.0;39.0;63.0;103.0;0.0;36.5;47.479;8.211;403.0;NaN;;24.331;;0 / 2;10669;2022-09-27 11:16:23:317
-5.18;-9.92;-0.07;-4.1;-8.9;-0.27;1.51;0.31;1.36;0.63;1.83;-0.6;0.7;13.0;43.0;-22.0;72.0;65.0;94.0;0.0;36.5;47.479;8.211;403.0;NaN;;24.331;;0 / 2;10717;2022-09-27 11:16:23:365
-1.34;-15.97;0.35;-3.61;-9.12;0.05;0.09;0.5;-0.04;0.63;1.83;-0.6;0.7;13.0;43.0;-22.0;72.0;65.0;94.0;0.0;36.5;47.479;8.211;403.0;NaN;;24.331;;0 / 2;10765;2022-09-27 11:16:23:413
-1.34;-15.97;0.35;-3.61;-9.12;0.05;0.09;0.5;-0.04;0.22;0.31;-0.89;0.7;13.0;43.0;-22.0;72.0;65.0;94.0;0.0;36.5;47.479;8.211;403.0;NaN;;24.331;;0 / 2;10813;2022-09-27 11:16:23:461
-2.09;-9.78;1.51;-2.48;-9.49;-0.03;0.83;2.3;0.22;0.22;0.31;-0.89;0.7;13.0;43.0;-22.0;72.0;65.0;94.0;0.0;36.5;47.479;8.211;403.0;NaN;;24.331;;0 / 2;10861;2022-09-27 11:16:23:509
-2.09;-9.78;1.51;-2.48;-9.49;-0.03;0.83;2.3;0.22;0.22;0.31;-0.89;0.7;11.0;45.0;-23.0;87.0;75.0;91.0;0.0;36.5;47.479;8.211;403.0;NaN;;24.331;;0 / 2;10909;2022-09-27 11:16:23:557
-2.09;-9.78;1.51;-2.48;-9.49;-0.03;0.83;2.3;0.22;1.05;1.27;-0.62;0.7;11.0;45.0;-23.0;87.0;75.0;91.0;0.0;45.7;47.479;8.211;403.0;NaN;;24.331;;0 / 2;10958;2022-09-27 11:16:23:606
-0.66;-9.45;1.96;-1.82;-9.62;0.64;0.36;-0.02;-0.92;1.05;1.27;-0.62;0.7;11.0;45.0;-23.0;87.0;75.0;91.0;0.0;45.7;47.479;8.211;403.0;NaN;;24.331;;0 / 2;11006;2022-09-27 11:16:23:654
-0.66;-9.45;1.96;-1.82;-9.62;0.64;0.36;-0.02;-0.92;0.62;0.2;-0.2;0.7;11.0;45.0;-23.0;87.0;75.0;91.0;0.0;45.7;47.479;8.211;403.0;NaN;;24.331;;0 / 2;11053;2022-09-27 11:16:23:701
-0.66;-9.45;1.96;-1.82;-9.62;0.64;0.36;-0.02;-0.92;0.62;0.2;-0.2;0.7;11.0;40.0;-26.0;117.0;79.0;71.0;0.0;45.7;47.479;8.211;403.0;NaN;;24.331;;0 / 2;11101;2022-09-27 11:16:23:749
-0.31;-9.62;2.73;-1.6;-9.59;1.26;0.56;0.39;0.06;0.62;0.2;-0.2;0.7;11.0;40.0;-26.0;117.0;79.0;71.0;0.0;45.7;47.479;8.211;403.0;NaN;;24.331;;0 / 2;11149;2022-09-27 11:16:23:797
-0.31;-9.62;2.73;-1.6;-9.59;1.26;0.56;0.39;0.06;0.66;-0.36;-0.31;0.7;11.0;40.0;-26.0;117.0;79.0;71.0;0.0;45.7;47.479;8.211;403.0;NaN;;24.331;;0 / 2;11196;2022-09-27 11:16:23:844
-1.3;-9.37;2.38;-1.6;-9.59;1.26;0.56;0.39;0.06;0.66;-0.36;-0.31;0.7;11.0;40.0;-26.0;117.0;79.0;71.0;0.0;45.7;47.479;8.211;403.0;NaN;;24.331;;0 / 2;11246;2022-09-27 11:16:23:894
-1.3;-9.37;2.38;-1.12;-9.58;1.79;-0.34;-0.63;-2.19;0.66;-0.36;-0.31;0.7;11.0;40.0;-26.0;117.0;79.0;71.0;0.0;25.7;47.479;8.211;403.0;NaN;;24.331;;0 / 2;11292;2022-09-27 11:16:23:940
-2.76;-8.1;2.93;-1.12;-9.58;1.79;-0.34;-0.63;-2.19;0.11;-0.38;-0.47;0.7;7.0;41.0;-28.0;153.0;78.0;32.0;0.0;25.7;47.479;8.211;403.0;NaN;;24.331;;0 / 2;11341;2022-09-27 11:16:23:989
-2.76;-8.1;2.93;-0.8;-9.63;1.7;-0.89;0.79;1.23;0.11;-0.38;-0.47;0.7;7.0;41.0;-28.0;153.0;78.0;32.0;0.0;25.7;47.479;8.211;403.0;NaN;;24.331;;0 / 2;11389;2022-09-27 11:16:24:037
-2.76;-8.1;2.93;-0.8;-9.63;1.7;-0.89;0.79;1.23;0.11;-0.38;-0.47;0.7;7.0;41.0;-28.0;153.0;78.0;32.0;0.0;25.7;47.479;8.211;403.0;NaN;;24.331;;0 / 2;11436;2022-09-27 11:16:24:084
-2.77;-11.6;-0.2;-0.24;-9.58;2.1;-0.19;-1.07;-2.2;-0.04;0.05;-0.43;0.7;7.0;41.0;-28.0;153.0;78.0;32.0;0.0;25.7;47.479;8.211;403.0;NaN;;24.331;;0 / 2;11485;2022-09-27 11:16:24:133
-2.77;-11.6;-0.2;-0.24;-9.58;2.1;-0.19;-1.07;-2.2;-0.04;0.05;-0.43;0.7;4.0;39.0;-30.0;181.0;78.0;7.0;0.0;25.7;47.479;8.211;403.0;NaN;;24.331;;0 / 2;11533;2022-09-27 11:16:24:181
-2.77;-11.6;-0.2;-0.24;-9.58;2.1;-0.19;-1.07;-2.2;-0.04;0.05;-0.43;0.7;4.0;39.0;-30.0;181.0;78.0;7.0;0.0;25.7;47.479;8.211;403.0;NaN;;24.331;;0 / 2;11580;2022-09-27 11:16:24:228
-0.91;-8.58;1.16;-0.27;-9.61;1.94;-5.01;-1.55;-0.32;-1.49;0.82;1.08;0.7;4.0;39.0;-30.0;181.0;78.0;7.0;0.0;45.8;47.479;8.211;403.0;NaN;;24.331;;0 / 2;11629;2022-09-27 11:16:24:277
-0.91;-8.58;1.16;-0.27;-9.61;1.94;-5.01;-1.55;-0.32;-1.49;0.82;1.08;0.7;4.0;39.0;-30.0;181.0;78.0;7.0;0.0;45.8;47.479;8.211;403.0;NaN;;24.331;;0 / 2;11677;2022-09-27 11:16:24:325
-1.26;-18.4;4.24;-1.99;-9.59;0.42;-1.71;-0.71;2.72;-0.55;-0.22;1.66;0.7;11.0;42.0;-24.0;205.0;78.0;8.0;0.0;45.8;47.479;8.211;403.0;NaN;;24.331;;0 / 2;11725;2022-09-27 11:16:24:373
-1.26;-18.4;4.24;-1.99;-9.59;0.42;-1.71;-0.71;2.72;-0.55;-0.22;1.66;0.7;11.0;42.0;-24.0;205.0;78.0;8.0;0.0;45.8;47.479;8.211;403.0;NaN;;24.331;;0 / 2;11773;2022-09-27 11:16:24:421
-1.26;-18.4;4.24;-1.99;-9.59;0.42;-1.71;-0.71;2.72;-0.55;-0.22;1.66;0.7;11.0;42.0;-24.0;205.0;78.0;8.0;0.0;45.8;47.479;8.211;403.0;NaN;;24.331;;0 / 2;11822;2022-09-27 11:16:24:470
-8.69;-6.8;0.13;-4.15;-8.85;-0.81;4.16;0.95;2.72;-0.07;1.86;1.67;0.6;11.0;42.0;-24.0;205.0;78.0;8.0;0.0;45.8;47.479;8.211;403.0;NaN;;24.331;;0 / 2;11869;2022-09-27 11:16:24:517
-8.69;-6.8;0.13;-4.15;-8.85;-0.81;4.16;0.95;2.72;-0.07;1.86;1.67;0.6;28.0;38.0;-13.0;109.0;64.0;101.0;0.0;45.8;47.479;8.211;403.0;NaN;;24.331;;0 / 2;11917;2022-09-27 11:16:24:565
-8.69;-6.8;0.13;-4.15;-8.85;-0.81;4.16;0.95;2.72;-0.07;1.86;1.67;0.6;28.0;38.0;-13.0;109.0;64.0;101.0;0.0;54.0;47.479;8.211;403.0;NaN;;24.331;;0 / 2;11966;2022-09-27 11:16:24:614
-3.35;-6.65;0.92;-5.55;-7.79;-2.16;2.81;-2.63;2.24;0.58;1.28;0.82;0.6;28.0;38.0;-13.0;109.0;64.0;101.0;0.0;54.0;47.479;8.211;403.0;NaN;;24.331;;0 / 2;12013;2022-09-27 11:16:24:661
-3.35;-6.65;0.92;-5.55;-7.79;-2.16;2.81;-2.63;2.24;0.58;1.28;0.82;0.6;28.0;38.0;-13.0;109.0;64.0;101.0;0.0;54.0;47.479;8.211;403.0;NaN;;24.331;;0 / 2;12060;2022-09-27 11:16:24:708
-3.35;-6.65;0.92;-5.55;-7.79;-2.16;2.81;-2.63;2.24;0.58;1.28;0.82;0.6;36.0;32.0;-6.0;106.0;53.0;111.0;0.0;54.0;47.479;8.211;403.0;NaN;;24.331;;0 / 2;12109;2022-09-27 11:16:24:757
1.95;-4.38;1.09;-5.68;-7.66;-2.28;6.77;4.39;3.01;2.15;-0.24;-2.21;0.6;36.0;32.0;-6.0;106.0;53.0;111.0;0.0;54.0;47.479;8.211;403.0;NaN;;24.331;;0 / 2;12157;2022-09-27 11:16:24:805
1.95;-4.38;1.09;-5.68;-7.66;-2.28;6.77;4.39;3.01;2.15;-0.24;-2.21;0.6;36.0;32.0;-6.0;106.0;53.0;111.0;0.0;54.0;47.479;8.211;403.0;NaN;;24.331;;0 / 2;12206;2022-09-27 11:16:24:854
-10.88;-8.93;-0.75;-5.68;-7.66;-2.28;6.77;4.39;3.01;2.15;-0.24;-2.21;0.6;36.0;32.0;-6.0;106.0;53.0;111.0;0.0;54.0;47.479;8.211;403.0;NaN;;24.331;;0 / 2;12254;2022-09-27 11:16:24:902
-10.88;-8.93;-0.75;-3.26;-9.24;-0.46;-6.75;-7.56;-5.98;2.15;-0.24;-2.21;0.6;27.0;39.0;-15.0;118.0;70.0;98.0;0.0;48.3;47.479;8.211;403.0;NaN;;24.331;;0 / 2;12301;2022-09-27 11:16:24:949
2.57;-12.92;-4.94;-3.26;-9.24;-0.46;-6.75;-7.56;-5.98;-0.24;-1.17;-0.1;0.6;27.0;39.0;-15.0;118.0;70.0;98.0;0.0;48.3;47.479;8.211;403.0;NaN;;24.331;;0 / 3;12348;2022-09-27 11:16:24:996
2.57;-12.92;-4.94;-2.73;-9.41;-0.41;3.82;0.23;-0.3;-0.24;-1.17;-0.1;0.6;27.0;39.0;-15.0;118.0;70.0;98.0;0.0;48.3;47.479;8.211;403.0;NaN;;24.331;;0 / 3;12396;2022-09-27 11:16:25:044
2.57;-12.92;-4.94;-2.73;-9.41;-0.41;3.82;0.23;-0.3;-0.24;-1.17;-0.1;0.6;27.0;39.0;-15.0;118.0;70.0;98.0;0.0;48.3;47.479;8.211;403.0;NaN;;24.331;;0 / 3;12445;2022-09-27 11:16:25:093
-1.02;-10.0;1.39;-2.73;-9.41;-0.41;3.82;0.23;-0.3;1.19;-0.04;-0.51;0.6;27.0;39.0;-15.0;118.0;70.0;98.0;0.0;48.3;47.479;8.211;403.0;NaN;;24.331;;0 / 3;12493;2022-09-27 11:16:25:141
-1.02;-10.0;1.39;-1.92;-9.54;1.18;0.59;-0.52;-1.22;1.19;-0.04;-0.51;0.6;23.0;41.0;-15.0;114.0;74.0;99.0;0.0;48.3;47.479;8.211;403.0;NaN;;24.331;;0 / 3;12540;2022-09-27 11:16:25:188
-1.02;-10.0;1.39;-1.92;-9.54;1.18;0.59;-0.52;-1.22;1.19;-0.04;-0.51;0.6;23.0;41.0;-15.0;114.0;74.0;99.0;0.0;46.6;47.479;8.211;403.0;NaN;;24.331;;0 / 3;12589;2022-09-27 11:16:25:237
0.02;-10.49;3.71;-1.92;-9.54;1.18;0.59;-0.52;-1.22;-0.08;-0.27;-0.2;0.6;23.0;41.0;-15.0;114.0;74.0;99.0;0.0;46.6;47.479;8.211;403.0;NaN;;24.331;;0 / 3;12636;2022-09-27 11:16:25:284
0.02;-10.49;3.71;-1.38;-9.59;1.54;0.85;-0.46;1.48;-0.08;-0.27;-0.2;0.6;23.0;41.0;-15.0;114.0;74.0;99.0;0.0;46.6;47.479;8.211;403.0;NaN;;24.331;;0 / 3;12685;2022-09-27 11:16:25:333
-2.35;-10.17;0.05;-1.38;-9.59;1.54;0.85;-0.46;1.48;-0.27;-0.77;-0.49;0.6;17.0;39.0;-21.0;176.0;78.0;42.0;0.0;46.6;47.479;8.211;403.0;NaN;;24.331;;0 / 3;12733;2022-09-27 11:16:25:381
-2.35;-10.17;0.05;-0.87;-9.6;1.82;-0.99;0.01;-2.72;-0.27;-0.77;-0.49;0.6;17.0;39.0;-21.0;176.0;78.0;42.0;0.0;46.6;47.479;8.211;403.0;NaN;;24.331;;0 / 3;12780;2022-09-27 11:16:25:428
-2.35;-10.17;0.05;-0.87;-9.6;1.82;-0.99;0.01;-2.72;-0.27;-0.77;-0.49;0.6;17.0;39.0;-21.0;176.0;78.0;42.0;0.0;46.6;47.479;8.211;403.0;NaN;;24.331;;0 / 3;12829;2022-09-27 11:16:25:477
-6.41;-9.36;0.79;-0.87;-9.6;1.82;-0.99;0.01;-2.72;0.31;0.35;0.02;0.6;17.0;39.0;-21.0;176.0;78.0;42.0;0.0;46.6;47.479;8.211;403.0;NaN;;24.331;;0 / 3;12877;2022-09-27 11:16:25:525
-6.41;-9.36;0.79;-0.45;-9.65;1.66;-5.99;-0.68;0.14;0.31;0.35;0.02;0.6;14.0;40.0;-22.0;190.0;78.0;26.0;0.0;42.1;47.479;8.211;403.0;NaN;;24.331;;0 / 3;12925;2022-09-27 11:16:25:573
-6.41;-9.36;0.79;-0.45;-9.65;1.66;-5.99;-0.68;0.14;0.31;0.35;0.02;0.6;14.0;40.0;-22.0;190.0;78.0;26.0;0.0;42.1;47.479;8.211;403.0;NaN;;24.331;;0 / 3;12973;2022-09-27 11:16:25:621
0.03;-11.94;2.03;-0.45;-9.65;1.66;-5.99;-0.68;0.14;-2.23;-1.18;1.83;0.6;14.0;40.0;-22.0;190.0;78.0;26.0;0.0;42.1;47.479;8.211;403.0;NaN;;24.331;;0 / 3;13021;2022-09-27 11:16:25:669
0.03;-11.94;2.03;-2.21;-9.55;-0.41;2.05;-2.36;1.94;-2.23;-1.18;1.83;0.6;14.0;40.0;-22.0;190.0;78.0;26.0;0.0;42.1;47.479;8.211;403.0;NaN;;24.331;;0 / 3;13069;2022-09-27 11:16:25:717
0.03;-11.94;2.03;-2.21;-9.55;-0.41;2.05;-2.36;1.94;-2.23;-1.18;1.83;0.6;26.0;40.0;-11.0;132.0;77.0;100.0;0.0;42.1;47.479;8.211;403.0;NaN;;24.331;;0 / 3;13116;2022-09-27 11:16:25:764
-5.12;-7.15;1.92;-2.21;-9.55;-0.41;2.05;-2.36;1.94;0.35;1.64;1.16;0.6;26.0;40.0;-11.0;132.0;77.0;100.0;0.0;42.1;47.479;8.211;403.0;NaN;;24.331;;0 / 3;13165;2022-09-27 11:16:25:813
-5.12;-7.15;1.92;-4.03;-8.86;-1.2;-0.55;0.85;3.1;0.35;1.64;1.16;0.6;26.0;40.0;-11.0;132.0;77.0;100.0;0.0;42.1;47.479;8.211;403.0;NaN;;24.331;;0 / 3;13212;2022-09-27 11:16:25:860
3.01;-6.56;1.54;-4.03;-8.86;-1.2;-0.55;0.85;3.1;0.35;1.64;1.16;0.6;26.0;40.0;-11.0;132.0;77.0;100.0;0.0;34.8;47.479;8.211;403.0;NaN;;24.331;;0 / 3;13260;2022-09-27 11:16:25:908
3.01;-6.56;1.54;-4.03;-8.86;-1.2;-0.55;0.85;3.1;1.09;0.6;0.06;0.6;32.0;35.0;-6.0;127.0;65.0;107.0;0.0;34.8;47.479;8.211;403.0;NaN;;24.331;;0 / 3;13309;2022-09-27 11:16:25:957
-2.67;-8.99;-4.86;-4.36;-8.67;-1.44;6.7;2.23;2.46;1.09;0.6;0.06;0.6;32.0;35.0;-6.0;127.0;65.0;107.0;0.0;34.8;47.479;8.211;403.0;NaN;;24.331;;0 / 3;13357;2022-09-27 11:16:26:005
-2.67;-8.99;-4.86;-4.36;-8.67;-1.44;6.7;2.23;2.46;0.36;0.08;-0.21;0.6;32.0;35.0;-6.0;127.0;65.0;107.0;0.0;34.8;47.479;8.211;403.0;NaN;;24.331;;0 / 3;13406;2022-09-27 11:16:26:054
-2.81;-14.41;0.54;-3.96;-8.93;-0.86;-5.39;-2.34;-0.92;0.36;0.08;-0.21;0.6;32.0;35.0;-6.0;127.0;65.0;107.0;0.0;34.8;47.479;8.211;403.0;NaN;;24.331;;0 / 3;13453;2022-09-27 11:16:26:101
-2.81;-14.41;0.54;-3.96;-8.93;-0.86;-5.39;-2.34;-0.92;0.36;0.08;-0.21;0.6;29.0;37.0;-8.0;123.0;66.0;102.0;0.0;34.8;47.479;8.211;403.0;NaN;;24.331;;0 / 3;13500;2022-09-27 11:16:26:148
-2.81;-14.41;0.54;-3.96;-8.93;-0.86;-5.39;-2.34;-0.92;0.43;-0.43;-0.9;0.6;29.0;37.0;-8.0;123.0;66.0;102.0;0.0;34.8;47.479;8.211;403.0;NaN;;24.331;;0 / 3;13550;2022-09-27 11:16:26:198
1.28;-7.23;-1.45;-3.15;-9.28;-0.32;2.56;-0.32;0.87;0.43;-0.43;-0.9;0.6;29.0;37.0;-8.0;123.0;66.0;102.0;0.0;39.0;47.479;8.211;403.0;NaN;;24.331;;0 / 3;13597;2022-09-27 11:16:26:245
1.28;-7.23;-1.45;-3.15;-9.28;-0.32;2.56;-0.32;0.87;0.43;-0.43;-0.9;0.6;29.0;37.0;-8.0;123.0;66.0;102.0;0.0;39.0;47.479;8.211;403.0;NaN;;24.331;;0 / 3;13646;2022-09-27 11:16:26:294
1.28;-7.23;-1.45;-3.15;-9.28;-0.32;2.56;-0.32;0.87;0.19;0.53;-0.89;0.6;29.0;37.0;-8.0;123.0;66.0;102.0;0.0;39.0;47.479;8.211;403.0;NaN;;24.331;;0 / 3;13692;2022-09-27 11:16:26:340
-3.82;-7.83;0.17;-2.07;-9.58;0.32;-0.87;-1.19;2.38;0.19;0.53;-0.89;0.6;25.0;39.0;-10.0;129.0;71.0;96.0;0.0;39.0;47.479;8.211;403.0;NaN;;24.331;;0 / 3;13742;2022-09-27 11:16:26:390
-3.82;-7.83;0.17;-2.07;-9.58;0.32;-0.87;-1.19;2.38;0.19;0.53;-0.89;0.6;25.0;39.0;-10.0;129.0;71.0;96.0;0.0;39.0;47.479;8.211;403.0;NaN;;24.331;;0 / 3;13789;2022-09-27 11:16:26:437
-3.82;-7.83;0.17;-2.07;-9.58;0.32;-0.87;-1.19;2.38;0.43;-0.56;-0.04;0.6;25.0;39.0;-10.0;129.0;71.0;96.0;0.0;39.0;47.479;8.211;403.0;NaN;;24.331;;0 / 3;13838;2022-09-27 11:16:26:486
-1.15;-9.26;1.9;-1.72;-9.59;1.12;1.22;0.02;0.28;0.43;-0.56;-0.04;0.6;25.0;39.0;-10.0;129.0;71.0;96.0;0.0;30.6;47.479;8.211;403.0;NaN;;24.331;;0 / 3;13885;2022-09-27 11:16:26:533
-1.15;-9.26;1.9;-1.72;-9.59;1.12;1.22;0.02;0.28;0.48;-0.73;-0.68;0.6;22.0;39.0;-16.0;176.0;78.0;57.0;0.0;30.6;47.479;8.211;403.0;NaN;;24.331;;0 / 3;13933;2022-09-27 11:16:26:581
-3.67;-11.01;2.6;-1.72;-9.59;1.12;1.22;0.02;0.28;0.48;-0.73;-0.68;0.6;22.0;39.0;-16.0;176.0;78.0;57.0;0.0;30.6;47.479;8.211;403.0;NaN;;24.331;;0 / 3;13980;2022-09-27 11:16:26:628
-3.67;-11.01;2.6;-0.84;-9.66;1.44;-2.31;0.28;-1.71;0.48;-0.73;-0.68;0.6;22.0;39.0;-16.0;176.0;78.0;57.0;0.0;30.6;47.479;8.211;403.0;NaN;;24.331;;0 / 3;14029;2022-09-27 11:16:26:677
-5.97;-11.49;2.59;-0.84;-9.66;1.44;-2.31;0.28;-1.71;0.04;0.45;-0.32;0.6;22.0;39.0;-16.0;176.0;78.0;57.0;0.0;30.6;47.479;8.211;403.0;NaN;;24.331;;0 / 3;14076;2022-09-27 11:16:26:724
-5.97;-11.49;2.59;-0.84;-9.66;1.44;-2.31;0.28;-1.71;0.04;0.45;-0.32;0.6;17.0;41.0;-18.0;199.0;80.0;30.0;0.0;30.6;47.479;8.211;403.0;NaN;;24.331;;0 / 3;14125;2022-09-27 11:16:26:773
-5.97;-11.49;2.59;-0.8;-9.67;1.45;-4.84;-0.99;-0.68;0.04;0.45;-0.32;0.6;17.0;41.0;-18.0;199.0;80.0;30.0;0.0;30.6;47.479;8.211;403.0;NaN;;24.331;;0 / 3;14173;2022-09-27 11:16:26:821
-0.26;-9.38;1.89;-0.8;-9.67;1.45;-4.84;-0.99;-0.68;-2.3;-0.11;1.38;0.6;17.0;41.0;-18.0;199.0;80.0;30.0;0.0;34.2;47.479;8.211;403.0;NaN;;24.331;;0 / 3;14220;2022-09-27 11:16:26:868
-0.26;-9.38;1.89;-1.61;-9.67;0.08;1.42;-0.94;-3.87;-2.3;-0.11;1.38;0.6;17.0;41.0;-18.0;199.0;80.0;30.0;0.0;34.2;47.479;8.211;403.0;NaN;;24.331;;0 / 3;14270;2022-09-27 11:16:26:918
-0.26;-9.38;1.89;-1.61;-9.67;0.08;1.42;-0.94;-3.87;-2.3;-0.11;1.38;0.6;26.0;38.0;-8.0;161.0;81.0;87.0;0.0;34.2;47.479;8.211;403.0;NaN;;24.331;;0 / 3;14316;2022-09-27 11:16:26:964
-5.54;-9.52;1.86;-2.76;-9.35;-1.08;0.46;-0.82;3.62;0.22;1.1;1.51;0.6;26.0;38.0;-8.0;161.0;81.0;87.0;0.0;34.2;47.479;8.211;403.0;NaN;;24.331;;0 / 3;14365;2022-09-27 11:16:27:013
-5.54;-9.52;1.86;-2.76;-9.35;-1.08;0.46;-0.82;3.62;0.22;1.1;1.51;0.6;26.0;38.0;-8.0;161.0;81.0;87.0;0.0;34.2;47.479;8.211;403.0;NaN;;24.331;;0 / 3;14412;2022-09-27 11:16:27:060
3.29;-6.52;2.2;-4.39;-8.64;-1.47;2.07;0.0;3.52;1.16;1.82;0.36;0.6;26.0;38.0;-8.0;161.0;81.0;87.0;0.0;34.2;47.479;8.211;403.0;NaN;;24.331;;0 / 3;14460;2022-09-27 11:16:27:108
3.29;-6.52;2.2;-4.39;-8.64;-1.47;2.07;0.0;3.52;1.16;1.82;0.36;0.6;34.0;30.0;-1.0;140.0;62.0;109.0;0.0;34.2;47.479;8.211;403.0;NaN;;24.331;;0 / 3;14509;2022-09-27 11:16:27:157
3.29;-6.52;2.2;-4.39;-8.64;-1.47;2.07;0.0;3.52;1.16;1.82;0.36;0.6;34.0;30.0;-1.0;140.0;62.0;109.0;0.0;35.8;47.479;8.211;403.0;NaN;;24.331;;0 / 3;14556;2022-09-27 11:16:27:204
-7.71;-8.85;2.4;-4.05;-8.86;-1.14;5.61;0.61;-0.22;0.84;0.89;-0.18;0.6;34.0;30.0;-1.0;140.0;62.0;109.0;0.0;35.8;47.479;8.211;403.0;NaN;;24.331;;0 / 3;14606;2022-09-27 11:16:27:254
-7.71;-8.85;2.4;-4.05;-8.86;-1.14;5.61;0.61;-0.22;0.84;0.89;-0.18;0.6;34.0;30.0;-1.0;140.0;62.0;109.0;0.0;35.8;47.479;8.211;403.0;NaN;;24.331;;0 / 3;14652;2022-09-27 11:16:27:300
-7.71;-8.85;2.4;-4.05;-8.86;-1.14;5.61;0.61;-0.22;0.84;0.89;-0.18;0.6;33.0;32.0;0.0;149.0;65.0;106.0;0.0;35.8;47.479;8.211;403.0;NaN;;24.331;;0 / 3;14701;2022-09-27 11:16:27:349
-1.05;-11.51;-1.94;-3.69;-9.05;-0.77;-2.33;-1.28;0.11;0.43;1.07;-0.63;0.6;33.0;32.0;0.0;149.0;65.0;106.0;0.0;35.8;47.479;8.211;403.0;NaN;;24.331;;0 / 3;14749;2022-09-27 11:16:27:397
-1.05;-11.51;-1.94;-3.69;-9.05;-0.77;-2.33;-1.28;0.11;0.43;1.07;-0.63;0.6;33.0;32.0;0.0;149.0;65.0;106.0;0.0;35.8;47.479;8.211;403.0;NaN;;24.331;;0 / 3;14797;2022-09-27 11:16:27:445
-1.05;-11.51;-1.94;-3.69;-9.05;-0.77;-2.33;-1.28;0.11;0.43;1.07;-0.63;0.6;33.0;32.0;0.0;149.0;65.0;106.0;0.0;35.8;47.479;8.211;403.0;NaN;;24.331;;0 / 3;14846;2022-09-27 11:16:27:494
-2.35;-11.18;1.67;-2.72;-9.4;-0.65;3.49;2.13;0.65;1.02;2.06;-1.01;0.6;33.0;32.0;0.0;149.0;65.0;106.0;0.0;36.3;47.479;8.211;403.0;NaN;;24.331;;0 / 3;14892;2022-09-27 11:16:27:540
-2.35;-11.18;1.67;-2.72;-9.4;-0.65;3.49;2.13;0.65;1.02;2.06;-1.01;0.6;27.0;34.0;3.0;168.0;73.0;103.0;0.0;36.3;47.479;8.211;403.0;NaN;;24.331;;0 / 3;14941;2022-09-27 11:16:27:589
-2.63;-8.94;1.15;-1.52;-9.68;0.24;-2.44;0.38;-0.05;1.02;2.06;-1.01;0.6;27.0;34.0;3.0;168.0;73.0;103.0;0.0;36.3;47.479;8.211;403.0;NaN;;24.331;;0 / 3;14990;2022-09-27 11:16:27:638
-2.63;-8.94;1.15;-1.52;-9.68;0.24;-2.44;0.38;-0.05;1.02;2.06;-1.01;0.6;27.0;34.0;3.0;168.0;73.0;103.0;0.0;36.3;47.479;8.211;403.0;NaN;;24.331;;0 / 3;15038;2022-09-27 11:16:27:686
-2.63;-8.94;1.15;-1.52;-9.68;0.24;-2.44;0.38;-0.05;0.51;1.18;-0.26;0.6;27.0;34.0;3.0;168.0;73.0;103.0;0.0;36.3;47.479;8.211;403.0;NaN;;24.331;;0 / 3;15085;2022-09-27 11:16:27:733
-0.09;-9.98;1.02;-1.21;-9.69;0.89;1.17;0.42;2.44;0.51;1.18;-0.26;0.6;26.0;36.0;5.0;205.0;81.0;81.0;0.0;36.3;47.479;8.211;403.0;NaN;;24.331;;0 / 3;15133;2022-09-27 11:16:27:781
-0.09;-9.98;1.02;-1.21;-9.69;0.89;1.17;0.42;2.44;0.51;1.18;-0.26;0.6;26.0;36.0;5.0;205.0;81.0;81.0;0.0;29.6;47.479;8.211;403.0;NaN;;24.331;;0 / 3;15181;2022-09-27 11:16:27:829
-3.15;-9.66;1.79;-1.21;-9.69;0.89;1.17;0.42;2.44;0.42;0.49;-0.53;0.6;26.0;36.0;5.0;205.0;81.0;81.0;0.0;29.6;47.479;8.211;403.0;NaN;;24.331;;0 / 3;15229;2022-09-27 11:16:27:877
-3.15;-9.66;1.79;-0.63;-9.69;1.39;-0.74;0.03;0.03;0.42;0.49;-0.53;0.6;26.0;36.0;5.0;205.0;81.0;81.0;0.0;29.6;47.479;8.211;403.0;NaN;;24.331;;0 / 3;15277;2022-09-27 11:16:27:925
-4.9;-12.76;1.22;-0.63;-9.69;1.39;-0.74;0.03;0.03;0.01;0.96;-0.35;0.6;22.0;39.0;5.0;274.0;81.0;24.0;0.0;29.6;47.479;8.211;403.0;NaN;;24.331;;0 / 3;15325;2022-09-27 11:16:27:973
-4.9;-12.76;1.22;-0.63;-9.69;1.39;-0.74;0.03;0.03;0.01;0.96;-0.35;0.6;22.0;39.0;5.0;274.0;81.0;24.0;0.0;29.6;47.479;8.211;403.0;NaN;;24.331;;0 / 3;15375;2022-09-27 11:16:28:023
-4.9;-12.76;1.22;-0.55;-9.7;1.34;-4.5;-1.65;-0.23;0.01;0.96;-0.35;0.6;22.0;39.0;5.0;274.0;81.0;24.0;0.0;29.6;47.479;8.211;403.0;NaN;;24.331;;0 / 3;15420;2022-09-27 11:16:28:068
-1.45;-9.03;0.74;-0.55;-9.7;1.34;-4.5;-1.65;-0.23;-2.06;1.31;0.94;0.6;22.0;39.0;5.0;274.0;81.0;24.0;0.0;29.6;47.479;8.211;403.0;NaN;;24.331;;0 / 3;15469;2022-09-27 11:16:28:117
-1.45;-9.03;0.74;-0.55;-9.7;1.34;-4.5;-1.65;-0.23;-2.06;1.31;0.94;0.6;26.0;34.0;19.0;292.0;82.0;22.0;0.0;34.0;47.479;8.211;403.0;NaN;;24.331;;0 / 3;15517;2022-09-27 11:16:28:165
-1.45;-9.03;0.74;-2.06;-9.51;-1.21;-0.96;0.63;2.92;-2.06;1.31;0.94;0.6;26.0;34.0;19.0;292.0;82.0;22.0;0.0;34.0;47.479;8.211;403.0;NaN;;24.331;;0 / 3;15565;2022-09-27 11:16:28:213
-5.65;-11.16;8.09;-2.06;-9.51;-1.21;-0.96;0.63;2.92;0.2;0.89;1.64;0.6;26.0;34.0;19.0;292.0;82.0;22.0;0.0;34.0;47.479;8.211;403.0;NaN;;24.331;;0 / 3;15613;2022-09-27 11:16:28:261
-5.65;-11.16;8.09;-3.16;-9.09;-1.87;-2.1;-2.75;8.09;0.2;0.89;1.64;0.6;26.0;34.0;19.0;292.0;82.0;22.0;0.0;34.0;47.479;8.211;403.0;NaN;;24.331;;0 / 3;15660;2022-09-27 11:16:28:308
-5.65;-11.16;8.09;-3.16;-9.09;-1.87;-2.1;-2.75;8.09;0.2;0.89;1.64;0.6;28.0;25.0;30.0;203.0;68.0;121.0;0.0;34.0;47.479;8.211;403.0;NaN;;24.331;;0 / 3;15709;2022-09-27 11:16:28:357
0.68;-8.43;4.03;-3.16;-9.09;-1.87;-2.1;-2.75;8.09;1.53;3.68;0.87;0.6;28.0;25.0;30.0;203.0;68.0;121.0;0.0;34.0;47.479;8.211;403.0;NaN;;24.331;;0 / 3;15757;2022-09-27 11:16:28:405
0.68;-8.43;4.03;-4.19;-8.74;-1.5;3.45;-0.79;5.14;1.53;3.68;0.87;0.6;28.0;25.0;30.0;203.0;68.0;121.0;0.0;34.0;47.479;8.211;403.0;NaN;;24.331;;0 / 3;15805;2022-09-27 11:16:28:453
-5.53;-9.53;-3.84;-4.19;-8.74;-1.5;3.45;-0.79;5.14;0.85;2.15;-0.33;0.6;28.0;25.0;30.0;203.0;68.0;121.0;0.0;33.7;47.479;8.211;403.0;NaN;;24.331;;0 / 3;15852;2022-09-27 11:16:28:500
-5.53;-9.53;-3.84;-4.19;-8.74;-1.5;3.45;-0.79;5.14;0.85;2.15;-0.33;0.6;7.0;36.0;30.0;273.0;63.0;110.0;0.0;33.7;47.479;8.211;403.0;NaN;;24.331;;0 / 3;15901;2022-09-27 11:16:28:549
-5.53;-9.53;-3.84;-3.79;-8.97;-1.16;0.47;-0.05;-1.79;0.85;2.15;-0.33;0.6;7.0;36.0;30.0;273.0;63.0;110.0;0.0;33.7;47.479;8.211;403.0;NaN;;24.331;;0 / 3;15949;2022-09-27 11:16:28:597
-0.98;-12.08;1.49;-3.79;-8.97;-1.16;0.47;-0.05;-1.79;0.6;1.28;0.21;0.6;7.0;36.0;30.0;273.0;63.0;110.0;0.0;33.7;47.479;8.211;403.0;NaN;;24.331;;0 / 3;15996;2022-09-27 11:16:28:644
-0.98;-12.08;1.49;-3.79;-8.97;-1.16;0.47;-0.05;-1.79;0.6;1.28;0.21;0.6;7.0;36.0;30.0;273.0;63.0;110.0;0.0;33.7;47.479;8.211;403.0;NaN;;24.331;;0 / 3;16046;2022-09-27 11:16:28:694
-0.98;-12.08;1.49;-3.67;-9.05;-0.84;-0.39;0.12;0.93;0.6;1.28;0.21;0.6;7.0;36.0;30.0;273.0;63.0;110.0;0.0;33.7;47.479;8.211;403.0;NaN;;24.331;;0 / 3;16093;2022-09-27 11:16:28:741
-0.73;-6.67;-2.25;-3.67;-9.05;-0.84;-0.39;0.12;0.93;0.32;1.26;-0.86;0.6;2.0;41.0;25.0;290.0;67.0;103.0;0.0;33.7;47.479;8.211;403.0;NaN;;24.331;;0 / 3;16140;2022-09-27 11:16:28:788
-0.73;-6.67;-2.25;-2.66;-9.41;-0.74;1.78;2.11;-0.17;0.32;1.26;-0.86;0.6;2.0;41.0;25.0;290.0;67.0;103.0;0.0;36.8;47.479;8.211;403.0;NaN;;24.331;;0 / 3;16189;2022-09-27 11:16:28:837
-2.1;-8.31;0.14;-2.66;-9.41;-0.74;1.78;2.11;-0.17;0.32;1.26;-0.86;0.7;2.0;41.0;25.0;290.0;67.0;103.0;0.0;36.8;47.479;8.211;403.0;NaN;;24.331;;0 / 3;16237;2022-09-27 11:16:28:885
-2.1;-8.31;0.14;-2.66;-9.41;-0.74;1.78;2.11;-0.17;0.8;1.6;-0.29;0.7;2.0;41.0;25.0;290.0;67.0;103.0;0.0;36.8;47.479;8.211;403.0;NaN;;24.331;;0 / 3;16285;2022-09-27 11:16:28:933
1.44;-9.59;6.28;-1.91;-9.62;-0.25;-0.72;1.13;0.77;0.8;1.6;-0.29;0.7;-8.0;42.0;20.0;303.0;74.0;105.0;0.0;36.8;47.479;8.211;403.0;NaN;;24.331;;0 / 4;16332;2022-09-27 11:16:28:980
1.44;-9.59;6.28;-1.91;-9.62;-0.25;-0.72;1.13;0.77;0.8;1.6;-0.29;0.7;-8.0;42.0;20.0;303.0;74.0;105.0;0.0;36.8;47.479;8.211;403.0;NaN;;24.331;;0 / 4;16381;2022-09-27 11:16:29:029
1.44;-9.59;6.28;-1.91;-9.62;-0.25;-0.72;1.13;0.77;0.8;1.6;-0.29;0.7;-8.0;42.0;20.0;303.0;74.0;105.0;0.0;36.8;47.479;8.211;403.0;NaN;;24.331;;0 / 4;16429;2022-09-27 11:16:29:077
-0.62;-9.16;4.17;-1.33;-9.66;0.99;0.24;-0.8;-3.06;-0.13;0.27;-0.3;0.7;-8.0;42.0;20.0;303.0;74.0;105.0;0.0;36.8;47.479;8.211;403.0;NaN;;24.331;;0 / 4;16476;2022-09-27 11:16:29:124
-0.62;-9.16;4.17;-1.33;-9.66;0.99;0.24;-0.8;-3.06;-0.13;0.27;-0.3;0.7;-16.0;43.0;11.0;2.0;80.0;53.0;0.0;34.1;47.479;8.211;403.0;NaN;;24.331;;0 / 4;16526;2022-09-27 11:16:29:174
-0.62;-9.16;4.17;-1.33;-9.66;0.99;0.24;-0.8;-3.06;-0.13;0.27;-0.3;0.7;-16.0;43.0;11.0;2.0;80.0;53.0;0.0;34.1;47.479;8.211;403.0;NaN;;24.331;;0 / 4;16575;2022-09-27 11:16:29:223
-1.1;-9.99;1.84;-0.75;-9.65;1.57;-1.18;0.4;-1.41;0.28;0.35;-0.41;0.7;-16.0;43.0;11.0;2.0;80.0;53.0;0.0;34.1;47.479;8.211;403.0;NaN;;24.331;;0 / 4;16621;2022-09-27 11:16:29:269
-1.1;-9.99;1.84;-0.75;-9.65;1.57;-1.18;0.4;-1.41;0.28;0.35;-0.41;0.7;-16.0;43.0;11.0;2.0;80.0;53.0;0.0;34.1;47.479;8.211;403.0;NaN;;24.331;;0 / 4;16668;2022-09-27 11:16:29:316
-7.75;-10.83;1.73;-0.51;-9.72;1.18;-5.01;-1.97;-0.69;-0.49;1.09;-0.1;0.7;-22.0;44.0;11.0;29.0;80.0;26.0;0.0;34.1;47.479;8.211;403.0;NaN;;24.331;;0 / 4;16717;2022-09-27 11:16:29:365
-7.75;-10.83;1.73;-0.51;-9.72;1.18;-5.01;-1.97;-0.69;-0.49;1.09;-0.1;0.7;-22.0;44.0;11.0;29.0;80.0;26.0;0.0;34.1;47.479;8.211;403.0;NaN;;24.331;;0 / 4;16765;2022-09-27 11:16:29:413
-7.75;-10.83;1.73;-0.51;-9.72;1.18;-5.01;-1.97;-0.69;-0.49;1.09;-0.1;0.7;-22.0;44.0;11.0;29.0;80.0;26.0;0.0;35.2;47.479;8.211;403.0;NaN;;24.331;;0 / 4;16813;2022-09-27 11:16:29:461
-1.82;-11.43;5.63;-1.85;-9.59;-0.86;-0.52;-1.41;2.44;-1.79;1.95;1.34;0.7;-22.0;44.0;11.0;29.0;80.0;26.0;0.0;35.2;47.479;8.211;403.0;NaN;;24.331;;0 / 4;16861;2022-09-27 11:16:29:509
-1.82;-11.43;5.63;-1.85;-9.59;-0.86;-0.52;-1.41;2.44;-1.79;1.95;1.34;0.7;-15.0;46.0;14.0;312.0;78.0;115.0;0.0;35.2;47.479;8.211;403.0;NaN;;24.331;;0 / 4;16908;2022-09-27 11:16:29:556
-1.82;-11.43;5.63;-1.85;-9.59;-0.86;-0.52;-1.41;2.44;-1.79;1.95;1.34;0.7;-15.0;46.0;14.0;312.0;78.0;115.0;0.0;35.2;47.479;8.211;403.0;NaN;;24.331;;0 / 4;16958;2022-09-27 11:16:29:606
-4.45;-9.36;2.05;-1.85;-9.59;-0.86;-0.52;-1.41;2.44;0.62;2.19;1.39;0.7;-15.0;46.0;14.0;312.0;78.0;115.0;0.0;35.2;47.479;8.211;403.0;NaN;;24.331;;0 / 4;17005;2022-09-27 11:16:29:653
-4.45;-9.36;2.05;-3.71;-8.97;-1.36;-1.64;-0.79;2.11;0.62;2.19;1.39;0.7;-15.0;46.0;14.0;312.0;78.0;115.0;0.0;35.2;47.479;8.211;403.0;NaN;;24.331;;0 / 4;17053;2022-09-27 11:16:29:701
-0.13;-7.44;2.24;-3.71;-8.97;-1.36;-1.64;-0.79;2.11;0.62;2.19;1.39;0.7;-4.0;50.0;4.0;347.0;66.0;110.0;0.0;35.2;47.479;8.211;403.0;NaN;;24.331;;0 / 4;17101;2022-09-27 11:16:29:749
-0.13;-7.44;2.24;-3.71;-8.97;-1.36;-1.64;-0.79;2.11;1.13;1.19;0.49;0.7;-4.0;50.0;4.0;347.0;66.0;110.0;0.0;33.6;47.479;8.211;403.0;NaN;;24.331;;0 / 4;17149;2022-09-27 11:16:29:797
-2.81;-9.05;-2.79;-4.23;-8.69;-1.65;6.72;1.87;2.77;1.13;1.19;0.49;0.7;-4.0;50.0;4.0;347.0;66.0;110.0;0.0;33.6;47.479;8.211;403.0;NaN;;24.331;;0 / 4;17197;2022-09-27 11:16:29:845
-2.81;-9.05;-2.79;-4.23;-8.69;-1.65;6.72;1.87;2.77;1.13;1.19;0.49;0.8;-4.0;50.0;4.0;347.0;66.0;110.0;0.0;33.6;47.479;8.211;403.0;NaN;;24.331;;0 / 4;17246;2022-09-27 11:16:29:894
-2.81;-9.05;-2.79;-4.23;-8.69;-1.65;6.72;1.87;2.77;1.0;0.2;-0.47;0.8;-4.0;50.0;4.0;347.0;66.0;110.0;0.0;33.6;47.479;8.211;403.0;NaN;;24.331;;0 / 4;17293;2022-09-27 11:16:29:941
-10.64;-9.7;-2.5;-3.9;-8.97;-0.78;-0.02;-0.38;-0.23;1.0;0.2;-0.47;0.8;-5.0;49.0;-5.0;6.0;62.0;111.0;0.0;33.6;47.479;8.211;403.0;NaN;;24.331;;0 / 4;17341;2022-09-27 11:16:29:989
-10.64;-9.7;-2.5;-3.9;-8.97;-0.78;-0.02;-0.38;-0.23;1.0;0.85;-0.41;0.8;-5.0;49.0;-5.0;6.0;62.0;111.0;0.0;33.6;47.479;8.211;403.0;NaN;;24.331;;0 / 4;17388;2022-09-27 11:16:30:036
-10.64;-9.7;-2.5;-3.9;-8.97;-0.78;-0.02;-0.38;-0.23;0.16;0.85;-0.41;0.8;-5.0;49.0;-5.0;6.0;62.0;111.0;0.0;33.6;47.479;8.211;403.0;NaN;;24.331;;0 / 4;17437;2022-09-27 11:16:30:085
2.58;-5.54;-0.17;-3.51;-9.16;-0.04;1.38;-5.4;-1.32;0.16;0.85;-0.41;0.8;-5.0;49.0;-5.0;6.0;62.0;111.0;0.0;38.6;47.479;8.211;403.0;NaN;;24.331;;0 / 4;17485;2022-09-27 11:16:30:133
2.58;-5.54;-0.17;-3.51;-9.16;-0.04;1.38;-5.4;-1.32;0.14;1.46;-0.88;0.8;-8.0;49.0;-7.0;15.0;69.0;91.0;0.0;38.6;47.479;8.211;403.0;NaN;;24.331;;0 / 4;17532;2022-09-27 11:16:30:180
2.58;-5.54;-0.17;-3.51;-9.16;-0.04;1.38;-5.4;-1.32;0.14;1.46;-0.88;0.8;-8.0;49.0;-7.0;15.0;69.0;91.0;0.0;38.6;47.479;8.211;403.0;NaN;;24.331;;0 / 4;17580;2022-09-27 11:16:30:228
-4.23;-9.15;3.43;-2.42;-9.5;0.33;1.88;-1.58;0.36;0.14;1.46;-0.88;0.8;-8.0;49.0;-7.0;15.0;69.0;91.0;0.0;38.6;47.479;8.211;403.0;NaN;;24.331;;0 / 4;17629;2022-09-27 11:16:30:277
-4.23;-9.15;3.43;-2.42;-9.5;0.33;1.88;-1.58;0.36;0.03;-1.17;0.24;0.8;-8.0;49.0;-7.0;15.0;69.0;91.0;0.0;38.6;47.479;8.211;403.0;NaN;;24.331;;0 / 4;17677;2022-09-27 11:16:30:325
0.45;-10.04;2.72;-1.99;-9.47;1.57;-0.71;0.99;-3.19;0.03;-1.17;0.24;0.8;-14.0;47.0;-10.0;26.0;76.0;82.0;0.0;38.6;47.479;8.211;403.0;NaN;;24.331;;0 / 4;17725;2022-09-27 11:16:30:373
0.45;-10.04;2.72;-1.99;-9.47;1.57;-0.71;0.99;-3.19;0.03;-1.17;0.24;0.8;-14.0;47.0;-10.0;26.0;76.0;82.0;0.0;38.6;47.479;8.211;403.0;NaN;;24.331;;0 / 4;17774;2022-09-27 11:16:30:422
0.45;-10.04;2.72;-1.99;-9.47;1.57;-0.71;0.99;-3.19;0.03;-1.17;0.24;0.8;-14.0;47.0;-10.0;26.0;76.0;82.0;0.0;27.6;47.479;8.211;403.0;NaN;;24.331;;0 / 4;17821;2022-09-27 11:16:30:469
-3.98;-8.95;0.94;-1.19;-9.5;2.11;-0.15;0.03;-1.41;0.17;-0.99;-0.68;0.8;-14.0;47.0;-10.0;26.0;76.0;82.0;0.0;27.6;47.479;8.211;403.0;NaN;;24.331;;0 / 4;17869;2022-09-27 11:16:30:517
-3.98;-8.95;0.94;-1.19;-9.5;2.11;-0.15;0.03;-1.41;0.17;-0.99;-0.68;0.7;-18.0;45.0;-11.0;64.0;76.0;29.0;0.0;27.6;47.479;8.211;403.0;NaN;;24.331;;0 / 4;17916;2022-09-27 11:16:30:564
-3.98;-8.95;0.94;-1.19;-9.5;2.11;-0.15;0.03;-1.41;0.17;-0.99;-0.68;0.7;-18.0;45.0;-11.0;64.0;76.0;29.0;0.0;27.6;47.479;8.211;403.0;NaN;;24.331;;0 / 4;17965;2022-09-27 11:16:30:613
-6.01;-12.2;-14.79;-1.02;-9.51;2.17;-5.74;-0.47;-0.13;0.08;-1.01;0.88;0.7;-18.0;45.0;-11.0;64.0;76.0;29.0;0.0;27.6;47.479;8.211;403.0;NaN;;24.331;;0 / 4;18013;2022-09-27 11:16:30:661
-6.01;-12.2;-14.79;-1.02;-9.51;2.17;-5.74;-0.47;-0.13;0.08;-1.01;0.88;0.7;-18.0;45.0;-11.0;64.0;76.0;29.0;0.0;27.6;47.479;8.211;403.0;NaN;;24.331;;0 / 4;18060;2022-09-27 11:16:30:708
-6.01;-12.2;-14.79;-1.02;-9.51;2.17;-5.74;-0.47;-0.13;0.08;-1.01;0.88;0.7;-9.0;50.0;-1.0;30.0;76.0;25.0;0.0;38.7;47.479;8.211;403.0;NaN;;24.331;;0 / 4;18109;2022-09-27 11:16:30:757
3.36;-14.62;1.05;-3.58;-9.13;-0.04;5.22;-4.38;3.08;-1.8;-2.63;1.84;0.7;-9.0;50.0;-1.0;30.0;76.0;25.0;0.0;38.7;47.479;8.211;403.0;NaN;;24.331;;0 / 4;18158;2022-09-27 11:16:30:806
3.36;-14.62;1.05;-3.58;-9.13;-0.04;5.22;-4.38;3.08;-1.8;-2.63;1.84;0.7;-9.0;50.0;-1.0;30.0;76.0;25.0;0.0;38.7;47.479;8.211;403.0;NaN;;24.331;;0 / 4;18205;2022-09-27 11:16:30:853
0.84;-6.39;-0.17;-3.58;-9.13;-0.04;5.22;-4.38;3.08;-1.8;-2.63;1.84;0.7;-9.0;50.0;-1.0;30.0;76.0;25.0;0.0;38.7;47.479;8.211;403.0;NaN;;24.331;;0 / 4;18253;2022-09-27 11:16:30:901
0.84;-6.39;-0.17;-4.8;-8.49;-1.06;2.71;0.98;1.41;-1.8;-2.63;1.84;0.7;0.0;49.0;13.0;330.0;60.0;102.0;0.0;38.7;47.479;8.211;403.0;NaN;;24.331;;0 / 4;18301;2022-09-27 11:16:30:949
2.24;-4.4;1.31;-4.8;-8.49;-1.06;2.71;0.98;1.41;-0.3;0.09;-0.57;0.7;0.0;49.0;13.0;330.0;60.0;102.0;0.0;38.7;47.479;8.211;403.0;NaN;;24.331;;0 / 4;18348;2022-09-27 11:16:30:996
2.24;-4.4;1.31;-4.8;-8.49;-1.06;2.71;0.98;1.41;-0.3;0.09;-0.57;0.7;0.0;49.0;13.0;330.0;60.0;102.0;0.0;38.7;47.479;8.211;403.0;NaN;;24.331;;0 / 4;18397;2022-09-27 11:16:31:045
2.24;-4.4;1.31;-4.8;-8.49;-1.06;2.71;0.98;1.41;-0.3;0.09;-0.57;0.7;0.0;49.0;13.0;330.0;60.0;102.0;0.0;38.0;47.479;8.211;403.0;NaN;;24.331;;0 / 4;18445;2022-09-27 11:16:31:093
-6.95;-10.33;-6.07;-4.01;-8.88;-1.13;4.61;2.74;1.99;-0.5;-2.12;-0.29;0.7;0.0;49.0;13.0;330.0;60.0;102.0;0.0;38.0;47.479;8.211;403.0;NaN;;24.331;;0 / 4;18493;2022-09-27 11:16:31:141
-6.95;-10.33;-6.07;-4.01;-8.88;-1.13;4.61;2.74;1.99;-0.5;-2.12;-0.29;0.7;-4.0;49.0;14.0;325.0;65.0;106.0;0.0;38.0;47.479;8.211;403.0;NaN;;24.331;;0 / 4;18541;2022-09-27 11:16:31:189
-0.33;-6.4;0.86;-3.59;-9.12;-0.43;0.76;0.25;-0.9;0.56;-1.64;-0.54;0.7;-4.0;49.0;14.0;325.0;65.0;106.0;0.0;38.0;47.479;8.211;403.0;NaN;;24.331;;0 / 4;18589;2022-09-27 11:16:31:237
-0.33;-6.4;0.86;-3.59;-9.12;-0.43;0.76;0.25;-0.9;0.56;-1.64;-0.54;0.7;-4.0;49.0;14.0;325.0;65.0;106.0;0.0;38.0;47.479;8.211;403.0;NaN;;24.331;;0 / 4;18637;2022-09-27 11:16:31:285
-0.33;-6.4;0.86;-3.59;-9.12;-0.43;0.76;0.25;-0.9;0.56;-1.64;-0.54;0.7;-4.0;49.0;14.0;325.0;65.0;106.0;0.0;38.0;47.479;8.211;403.0;NaN;;24.331;;0 / 4;18684;2022-09-27 11:16:31:332
-1.32;-10.46;4.89;-2.79;-9.34;1.07;3.41;3.84;0.03;0.14;-1.28;-0.05;0.7;-4.0;49.0;9.0;336.0;68.0;97.0;0.0;38.0;47.479;8.211;403.0;NaN;;24.331;;0 / 4;18733;2022-09-27 11:16:31:381
-1.32;-10.46;4.89;-2.79;-9.34;1.07;3.41;3.84;0.03;0.14;-1.28;-0.05;0.7;-4.0;49.0;9.0;336.0;68.0;97.0;0.0;35.6;47.479;8.211;403.0;NaN;;24.331;;0 / 4;18780;2022-09-27 11:16:31:428
-1.32;-10.46;4.89;-2.79;-9.34;1.07;3.41;3.84;0.03;0.14;-1.28;-0.05;0.7;-4.0;49.0;9.0;336.0;68.0;97.0;0.0;35.6;47.479;8.211;403.0;NaN;;24.331;;0 / 4;18829;2022-09-27 11:16:31:477
-3.02;-9.69;1.95;-2.33;-9.34;1.86;-0.53;0.94;0.19;0.03;-2.2;-0.09;0.7;-4.0;49.0;9.0;336.0;68.0;97.0;0.0;35.6;47.479;8.211;403.0;NaN;;24.331;;0 / 4;18877;2022-09-27 11:16:31:525
-3.02;-9.69;1.95;-2.33;-9.34;1.86;-0.53;0.94;0.19;0.03;-2.2;-0.09;0.7;0.0;50.0;10.0;340.0;72.0;51.0;0.0;35.6;47.479;8.211;403.0;NaN;;24.331;;0 / 4;18925;2022-09-27 11:16:31:573
-3.02;-9.69;1.95;-2.33;-9.34;1.86;-0.53;0.94;0.19;0.03;-2.2;-0.09;0.7;0.0;50.0;10.0;340.0;72.0;51.0;0.0;35.6;47.479;8.211;403.0;NaN;;24.331;;0 / 4;18973;2022-09-27 11:16:31:621
-3.55;-8.77;1.91;-1.58;-9.37;2.43;-1.49;0.52;-1.72;-0.37;-1.02;-0.09;0.7;0.0;50.0;10.0;340.0;72.0;51.0;0.0;35.6;47.479;8.211;403.0;NaN;;24.331;;0 / 4;19021;2022-09-27 11:16:31:669
-3.55;-8.77;1.91;-1.58;-9.37;2.43;-1.49;0.52;-1.72;-0.37;-1.02;-0.09;0.7;0.0;50.0;10.0;340.0;72.0;51.0;0.0;35.6;47.479;8.211;403.0;NaN;;24.331;;0 / 4;19068;2022-09-27 11:16:31:716
-5.48;-9.89;0.13;-1.14;-9.48;2.22;-2.24;-0.82;-0.58;-0.37;-1.02;-0.09;0.7;0.0;49.0;13.0;344.0;73.0;33.0;0.0;39.5;47.479;8.211;403.0;NaN;;24.331;;0 / 4;19117;2022-09-27 11:16:31:765
-5.48;-9.89;0.13;-1.14;-9.48;2.22;-2.24;-0.82;-0.58;-1.19;-1.21;1.05;0.7;0.0;49.0;13.0;344.0;73.0;33.0;0.0;39.5;47.479;8.211;403.0;NaN;;24.331;;0 / 4;19165;2022-09-27 11:16:31:813
-5.48;-9.89;0.13;-1.14;-9.48;2.22;-2.24;-0.82;-0.58;-1.19;-1.21;1.05;0.7;0.0;49.0;13.0;344.0;73.0;33.0;0.0;39.5;47.479;8.211;403.0;NaN;;24.331;;0 / 4;19213;2022-09-27 11:16:31:861
0.59;-12.09;2.57;-1.14;-9.48;2.22;-2.24;-0.82;-0.58;-1.19;-1.21;1.05;0.7;0.0;49.0;13.0;344.0;73.0;33.0;0.0;39.5;47.479;8.211;403.0;NaN;;24.331;;0 / 4;19261;2022-09-27 11:16:31:909
0.59;-12.09;2.57;-2.42;-9.49;0.49;1.77;-2.11;-3.85;-1.19;-1.21;1.05;0.7;21.0;39.0;24.0;259.0;75.0;79.0;0.0;39.5;47.479;8.211;403.0;NaN;;24.331;;0 / 4;19309;2022-09-27 11:16:31:957
-4.71;-11.59;1.42;-2.42;-9.49;0.49;1.77;-2.11;-3.85;-1.51;-2.19;1.69;0.7;21.0;39.0;24.0;259.0;75.0;79.0;0.0;39.5;47.479;8.211;403.0;NaN;;24.331;;0 / 4;19356;2022-09-27 11:16:32:004
-4.71;-11.59;1.42;-4.52;-8.69;-0.52;-1.1;-1.42;1.39;-1.51;-2.19;1.69;0.7;21.0;39.0;24.0;259.0;75.0;79.0;0.0;39.5;47.479;8.211;403.0;NaN;;24.331;;0 / 4;19405;2022-09-27 11:16:32:053
1.19;-4.37;0.73;-4.52;-8.69;-0.52;-1.1;-1.42;1.39;-0.22;1.72;0.39;0.7;21.0;39.0;24.0;259.0;75.0;79.0;0.0;39.8;47.479;8.211;403.0;NaN;;24.331;;0 / 4;19452;2022-09-27 11:16:32:100
1.19;-4.37;0.73;-4.52;-8.69;-0.52;-1.1;-1.42;1.39;-0.22;1.72;0.39;0.7;23.0;35.0;29.0;255.0;62.0;97.0;0.0;39.8;47.479;8.211;403.0;NaN;;24.331;;0 / 4;19501;2022-09-27 11:16:32:149
1.19;-4.37;0.73;-4.76;-8.45;-1.46;6.48;4.17;2.05;-0.22;1.72;0.39;0.7;23.0;35.0;29.0;255.0;62.0;97.0;0.0;39.8;47.479;8.211;403.0;NaN;;24.331;;0 / 4;19549;2022-09-27 11:16:32:197
-16.42;-15.08;-6.55;-4.76;-8.45;-1.46;6.48;4.17;2.05;0.33;-0.09;-1.12;0.7;23.0;35.0;29.0;255.0;62.0;97.0;0.0;39.8;47.479;8.211;403.0;NaN;;24.331;;0 / 4;19596;2022-09-27 11:16:32:244
-16.42;-15.08;-6.55;-4.76;-8.45;-1.46;6.48;4.17;2.05;0.33;-0.09;-1.12;0.7;23.0;35.0;29.0;255.0;62.0;97.0;0.0;39.8;47.479;8.211;403.0;NaN;;24.331;;0 / 4;19645;2022-09-27 11:16:32:293
-16.42;-15.08;-6.55;-3.83;-8.95;-1.21;-9.67;-3.97;-3.43;0.33;-0.09;-1.12;0.7;23.0;35.0;29.0;255.0;62.0;97.0;0.0;39.8;47.479;8.211;403.0;NaN;;24.331;;0 / 4;19693;2022-09-27 11:16:32:341
0.15;-13.67;-0.52;-3.83;-8.95;-1.21;-9.67;-3.97;-3.43;0.35;-0.21;-0.33;0.7;18.0;40.0;27.0;252.0;66.0;107.0;0.0;43.1;47.479;8.211;403.0;NaN;;24.331;;0 / 4;19741;2022-09-27 11:16:32:389
0.15;-13.67;-0.52;-3.83;-8.95;-1.21;-9.67;-3.97;-3.43;0.35;-0.21;-0.33;0.7;18.0;40.0;27.0;252.0;66.0;107.0;0.0;43.1;47.479;8.211;403.0;NaN;;24.331;;0 / 4;19789;2022-09-27 11:16:32:437
0.15;-13.67;-0.52;-3.83;-8.95;-1.21;-9.67;-3.97;-3.43;0.35;-0.21;-0.33;0.7;18.0;40.0;27.0;252.0;66.0;107.0;0.0;43.1;47.479;8.211;403.0;NaN;;24.331;;0 / 4;19837;2022-09-27 11:16:32:485
-0.99;-9.6;2.97;-3.23;-9.24;-0.6;2.32;-1.51;0.07;-0.22;0.6;-0.93;0.7;18.0;40.0;27.0;252.0;66.0;107.0;0.0;43.1;47.479;8.211;403.0;NaN;;24.331;;0 / 4;19885;2022-09-27 11:16:32:533
-0.99;-9.6;2.97;-3.23;-9.24;-0.6;2.32;-1.51;0.07;-0.22;0.6;-0.93;0.7;12.0;43.0;25.0;267.0;70.0;101.0;0.0;43.1;47.479;8.211;403.0;NaN;;24.331;;0 / 4;19933;2022-09-27 11:16:32:581
-2.25;-8.75;-2.55;-2.14;-9.57;-0.29;-0.87;-0.48;4.41;0.09;-0.28;-0.09;0.8;12.0;43.0;25.0;267.0;70.0;101.0;0.0;43.1;47.479;8.211;403.0;NaN;;24.331;;0 / 4;19981;2022-09-27 11:16:32:629
-2.25;-8.75;-2.55;-2.14;-9.57;-0.29;-0.87;-0.48;4.41;0.09;-0.28;-0.09;0.8;12.0;43.0;25.0;267.0;70.0;101.0;0.0;43.1;47.479;8.211;403.0;NaN;;24.331;;0 / 4;20029;2022-09-27 11:16:32:677
-1.18;-9.09;2.34;-2.14;-9.57;-0.29;-0.87;-0.48;4.41;0.09;-0.28;-0.09;0.8;12.0;43.0;25.0;267.0;70.0;101.0;0.0;36.6;47.479;8.211;403.0;NaN;;24.331;;0 / 4;20077;2022-09-27 11:16:32:725
-1.18;-9.09;2.34;-1.8;-9.63;0.43;0.57;0.0;1.1;0.72;-0.02;-0.65;0.8;9.0;47.0;22.0;267.0;77.0;98.0;0.0;36.6;47.479;8.211;403.0;NaN;;24.331;;0 / 4;20124;2022-09-27 11:16:32:772
-1.18;-9.09;2.34;-1.8;-9.63;0.43;0.57;0.0;1.1;0.72;-0.02;-0.65;0.8;9.0;47.0;22.0;267.0;77.0;98.0;0.0;36.6;47.479;8.211;403.0;NaN;;24.331;;0 / 4;20173;2022-09-27 11:16:32:821
-2.86;-8.82;-0.33;-1.8;-9.63;0.43;0.57;0.0;1.1;0.72;-0.02;-0.65;0.8;9.0;47.0;22.0;267.0;77.0;98.0;0.0;36.6;47.479;8.211;403.0;NaN;;24.331;;0 / 4;20220;2022-09-27 11:16:32:868
-2.86;-8.82;-0.33;-1.01;-9.69;1.12;-1.5;0.74;-1.9;0.01;0.83;-0.31;0.8;9.0;47.0;22.0;267.0;77.0;98.0;0.0;36.6;47.479;8.211;403.0;NaN;;24.331;;0 / 4;20269;2022-09-27 11:16:32:917
-2.86;-8.82;-0.33;-1.01;-9.69;1.12;-1.5;0.74;-1.9;0.01;0.83;-0.31;0.8;2.0;48.0;19.0;325.0;81.0;42.0;0.0;36.6;47.479;8.211;403.0;NaN;;24.331;;0 / 4;20317;2022-09-27 11:16:32:965
-7.68;-12.24;1.57;-0.86;-9.72;0.94;-2.41;0.24;0.9;0.01;0.83;-0.31;0.8;2.0;48.0;19.0;325.0;81.0;42.0;0.0;36.6;47.479;8.211;403.0;NaN;;24.331;;0 / 4;20365;2022-09-27 11:16:33:013
-7.68;-12.24;1.57;-0.86;-9.72;0.94;-2.41;0.24;0.9;-2.41;2.0;1.29;0.8;2.0;48.0;19.0;325.0;81.0;42.0;0.0;32.6;47.479;8.211;403.0;NaN;;24.331;;0 / 4;20412;2022-09-27 11:16:33:060
-2.67;-9.72;4.53;-1.68;-9.65;-0.35;-2.71;-0.39;-3.24;-2.41;2.0;1.29;0.8;2.0;48.0;19.0;325.0;81.0;42.0;0.0;32.6;47.479;8.211;403.0;NaN;;24.331;;0 / 4;20461;2022-09-27 11:16:33:109
-2.67;-9.72;4.53;-1.68;-9.65;-0.35;-2.71;-0.39;-3.24;-2.41;2.0;1.29;0.8;1.0;42.0;30.0;271.0;80.0;102.0;0.0;32.6;47.479;8.211;403.0;NaN;;24.331;;0 / 4;20508;2022-09-27 11:16:33:156
-2.67;-9.72;4.53;-1.68;-9.65;-0.35;-2.71;-0.39;-3.24;1.16;1.16;1.26;0.8;1.0;42.0;30.0;271.0;80.0;102.0;0.0;32.6;47.479;8.211;403.0;NaN;;24.331;;0 / 4;20557;2022-09-27 11:16:33:205
-7.16;-7.76;2.44;-3.41;-8.94;-2.15;-1.56;-2.84;9.42;1.16;1.16;1.26;0.8;1.0;42.0;30.0;271.0;80.0;102.0;0.0;32.6;47.479;8.211;403.0;NaN;;24.331;;0 / 4;20605;2022-09-27 11:16:33:253
-7.16;-7.76;2.44;-3.41;-8.94;-2.15;-1.56;-2.84;9.42;1.89;3.7;1.28;0.8;1.0;42.0;30.0;271.0;80.0;102.0;0.0;32.6;47.479;8.211;403.0;NaN;;24.331;;0 / 4;20652;2022-09-27 11:16:33:300
-7.16;-7.76;2.44;-3.41;-8.94;-2.15;-1.56;-2.84;9.42;1.89;3.7;1.28;0.8;-1.0;48.0;21.0;299.0;66.0;122.0;0.0;32.6;47.479;8.211;403.0;NaN;;24.331;;0 / 4;20701;2022-09-27 11:16:33:349
3.82;-8.97;1.82;-4.03;-8.8;-1.59;4.73;-1.74;6.03;1.89;3.7;1.28;0.8;-1.0;48.0;21.0;299.0;66.0;122.0;0.0;35.9;47.479;8.211;403.0;NaN;;24.331;;0 / 4;20749;2022-09-27 11:16:33:397
3.82;-8.97;1.82;-4.03;-8.8;-1.59;4.73;-1.74;6.03;1.56;2.58;0.2;0.8;-1.0;48.0;21.0;299.0;66.0;122.0;0.0;35.9;47.479;8.211;403.0;NaN;;24.331;;0 / 4;20796;2022-09-27 11:16:33:444
3.82;-8.97;1.82;-4.03;-8.8;-1.59;4.73;-1.74;6.03;1.56;2.58;0.2;0.8;-1.0;48.0;21.0;299.0;66.0;122.0;0.0;35.9;47.479;8.211;403.0;NaN;;24.331;;0 / 4;20845;2022-09-27 11:16:33:493
-3.16;-8.74;3.59;-3.76;-8.98;-1.2;0.16;-0.13;1.81;1.56;2.58;0.2;0.8;-1.0;48.0;21.0;299.0;66.0;122.0;0.0;35.9;47.479;8.211;403.0;NaN;;24.331;;0 / 4;20893;2022-09-27 11:16:33:541
-0.2;-9.22;0.22;-3.76;-8.98;-1.2;0.16;-0.13;1.81;1.27;2.56;0.01;0.8;-6.0;50.0;6.0;342.0;66.0;108.0;0.0;35.9;47.479;8.211;403.0;NaN;;24.331;;0 / 4;20940;2022-09-27 11:16:33:588
-0.2;-9.22;0.22;-3.76;-8.98;-1.2;0.16;-0.13;1.81;1.27;2.56;0.01;0.7;-6.0;50.0;6.0;342.0;66.0;108.0;0.0;35.9;47.479;8.211;403.0;NaN;;24.331;;0 / 4;20989;2022-09-27 11:16:33:637
-0.2;-9.22;0.22;-3.39;-9.17;-0.8;0.92;-0.27;0.58;1.27;2.56;0.01;0.7;-6.0;50.0;6.0;342.0;66.0;108.0;0.0;32.8;47.479;8.211;403.0;NaN;;24.331;;0 / 4;21037;2022-09-27 11:16:33:685
0.08;-10.47;-1.47;-3.39;-9.17;-0.8;0.92;-0.27;0.58;0.6;1.2;-0.8;0.7;-6.0;50.0;6.0;342.0;66.0;108.0;0.0;32.8;47.479;8.211;403.0;NaN;;24.331;;0 / 4;21086;2022-09-27 11:16:33:734
0.08;-10.47;-1.47;-2.2;-9.54;-0.48;-0.42;0.31;-1.13;0.6;1.2;-0.8;0.7;-13.0;50.0;-3.0;360.0;69.0;103.0;0.0;32.8;47.479;8.211;403.0;NaN;;24.331;;0 / 4;21133;2022-09-27 11:16:33:781
0.08;-10.47;-1.47;-2.2;-9.54;-0.48;-0.42;0.31;-1.13;0.6;1.2;-0.8;0.7;-13.0;50.0;-3.0;360.0;69.0;103.0;0.0;32.8;47.479;8.211;403.0;NaN;;24.331;;0 / 4;21181;2022-09-27 11:16:33:829
-5.07;-10.49;2.11;-1.76;-9.63;-0.57;-2.82;1.07;0.71;0.56;2.9;-0.4;0.7;-13.0;50.0;-3.0;360.0;69.0;103.0;0.0;32.8;47.479;8.211;403.0;NaN;;24.331;;0 / 4;21229;2022-09-27 11:16:33:877
-5.07;-10.49;2.11;-1.76;-9.63;-0.57;-2.82;1.07;0.71;0.56;2.9;-0.4;0.7;-13.0;50.0;-3.0;360.0;69.0;103.0;0.0;32.8;47.479;8.211;403.0;NaN;;24.331;;0 / 4;21276;2022-09-27 11:16:33:924
0.57;-10.52;5.21;-1.55;-9.68;-0.26;-2.82;1.07;0.71;1.34;1.94;-0.21;0.7;-11.0;47.0;-14.0;23.0;79.0;108.0;0.0;32.8;47.479;8.211;403.0;NaN;;24.331;;0 / 4;21325;2022-09-27 11:16:33:973
0.57;-10.52;5.21;-1.55;-9.68;-0.26;-2.82;1.07;0.71;1.34;1.94;-0.21;0.7;-11.0;47.0;-14.0;23.0;79.0;108.0;0.0;32.6;47.479;8.211;403.0;NaN;;24.331;;0 / 4;21373;2022-09-27 11:16:34:021
0.57;-10.52;5.21;-1.55;-9.68;-0.26;0.75;0.16;3.03;1.34;1.94;-0.21;0.7;-11.0;47.0;-14.0;23.0;79.0;108.0;0.0;32.6;47.479;8.211;403.0;NaN;;24.331;;0 / 4;21420;2022-09-27 11:16:34:068
-2.22;-9.21;2.38;-1.27;-9.67;1.03;0.75;0.16;3.03;0.37;1.01;-0.45;0.7;-11.0;47.0;-14.0;23.0;79.0;108.0;0.0;32.6;47.479;8.211;403.0;NaN;;24.331;;0 / 4;21470;2022-09-27 11:16:34:118
-2.22;-9.21;2.38;-1.27;-9.67;1.03;0.75;0.16;3.03;0.37;1.01;-0.45;0.7;-8.0;43.0;-24.0;94.0;80.0;51.0;0.0;32.6;47.479;8.211;403.0;NaN;;24.331;;0 / 4;21517;2022-09-27 11:16:34:165
-2.22;-9.21;2.38;-1.27;-9.67;1.03;-0.72;0.18;0.28;0.37;1.01;-0.45;0.7;-8.0;43.0;-24.0;94.0;80.0;51.0;0.0;32.6;47.479;8.211;403.0;NaN;;24.331;;0 / 4;21564;2022-09-27 11:16:34:212
-0.48;-9.57;1.21;-0.84;-9.64;1.57;-0.72;0.18;0.28;0.1;0.25;-0.48;0.7;-8.0;43.0;-24.0;94.0;80.0;51.0;0.0;32.6;47.479;8.211;403.0;NaN;;24.331;;0 / 4;21613;2022-09-27 11:16:34:261
-0.48;-9.57;1.21;-0.84;-9.64;1.57;0.38;-0.01;-0.53;0.1;0.25;-0.48;0.7;-8.0;43.0;-24.0;94.0;80.0;51.0;0.0;32.6;47.479;8.211;403.0;NaN;;24.331;;0 / 4;21661;2022-09-27 11:16:34:309
-0.48;-9.57;1.21;-0.84;-9.64;1.57;0.38;-0.01;-0.53;0.1;0.25;-0.48;0.7;-8.0;40.0;-27.0;122.0;80.0;28.0;0.0;35.7;47.479;8.211;403.0;NaN;;24.331;;0 / 4;21709;2022-09-27 11:16:34:357
-7.22;-11.38;1.24;-0.31;-9.66;1.63;0.38;-0.01;-0.53;-0.43;1.03;0.01;0.7;-8.0;40.0;-27.0;122.0;80.0;28.0;0.0;35.7;47.479;8.211;403.0;NaN;;24.331;;0 / 4;21758;2022-09-27 11:16:34:406
-7.22;-11.38;1.24;-0.31;-9.66;1.63;-6.21;-1.36;-0.11;-0.43;1.03;0.01;0.7;-8.0;40.0;-27.0;122.0;80.0;28.0;0.0;35.7;47.479;8.211;403.0;NaN;;24.331;;0 / 4;21804;2022-09-27 11:16:34:452
-4.03;-10.31;4.86;-0.92;-9.75;0.41;-6.21;-1.36;-0.11;-0.43;1.03;0.01;0.6;-8.0;40.0;-27.0;122.0;80.0;28.0;0.0;35.7;47.479;8.211;403.0;NaN;;24.331;;0 / 4;21852;2022-09-27 11:16:34:500
-4.03;-10.31;4.86;-0.92;-9.75;0.41;-6.21;-1.36;-0.11;-1.34;0.97;1.92;0.6;6.0;47.0;-20.0;119.0;84.0;66.0;0.0;35.7;47.479;8.211;403.0;NaN;;24.331;;0 / 4;21901;2022-09-27 11:16:34:549
-4.03;-10.31;4.86;-0.92;-9.75;0.41;-2.1;-0.61;4.58;-1.34;0.97;1.92;0.6;6.0;47.0;-20.0;119.0;84.0;66.0;0.0;35.7;47.479;8.211;403.0;NaN;;24.331;;0 / 4;21949;2022-09-27 11:16:34:597
-4.48;-11.53;-1.51;-3.29;-9.19;-0.95;-2.1;-0.61;4.58;-1.34;0.97;1.92;0.6;6.0;47.0;-20.0;119.0;84.0;66.0;0.0;35.7;47.479;8.211;403.0;NaN;;24.331;;0 / 4;21996;2022-09-27 11:16:34:644
-4.48;-11.53;-1.51;-3.29;-9.19;-0.95;-0.28;-2.66;0.02;0.21;2.85;1.96;0.7;6.0;47.0;-20.0;119.0;84.0;66.0;0.0;37.2;47.479;8.211;403.0;NaN;;24.331;;0 / 4;22045;2022-09-27 11:16:34:693
-4.48;-11.53;-1.51;-3.29;-9.19;-0.95;-0.28;-2.66;0.02;0.21;2.85;1.96;0.7;6.0;47.0;-20.0;119.0;84.0;66.0;0.0;37.2;47.479;8.211;403.0;NaN;;24.331;;0 / 4;22093;2022-09-27 11:16:34:741
2.65;-5.5;0.27;-4.91;-8.29;-1.81;-0.28;-2.66;0.02;0.21;2.85;1.96;0.7;25.0;40.0;-13.0;105.0;70.0;106.0;0.0;37.2;47.479;8.211;403.0;NaN;;24.331;;0 / 4;22141;2022-09-27 11:16:34:789
2.65;-5.5;0.27;-4.91;-8.29;-1.81;6.99;2.57;1.98;0.51;0.57;-0.07;0.7;25.0;40.0;-13.0;105.0;70.0;106.0;0.0;37.2;47.479;8.211;403.0;NaN;;24.331;;0 / 4;22189;2022-09-27 11:16:34:837
-6.91;-10.68;-6.83;-4.91;-8.29;-1.81;6.99;2.57;1.98;0.51;0.57;-0.07;0.7;25.0;40.0;-13.0;105.0;70.0;106.0;0.0;37.2;47.479;8.211;403.0;NaN;;24.331;;0 / 4;22236;2022-09-27 11:16:34:884
-6.91;-10.68;-6.83;-4.47;-8.58;-1.6;6.99;2.57;1.98;0.51;0.57;-0.07;0.7;25.0;40.0;-13.0;105.0;70.0;106.0;0.0;37.2;47.479;8.211;403.0;NaN;;24.331;;0 / 4;22285;2022-09-27 11:16:34:933
-7.84;-10.67;-1.38;-4.47;-8.58;-1.6;-5.18;-3.89;-2.34;0.52;0.84;-0.52;0.7;25.0;39.0;-12.0;85.0;61.0;110.0;0.0;38.3;47.479;8.211;403.0;NaN;;24.331;;0 / 4;22333;2022-09-27 11:16:34:981
-7.84;-10.67;-1.38;-4.47;-8.58;-1.6;-5.18;-3.89;-2.34;0.52;0.84;-0.52;0.7;25.0;39.0;-12.0;85.0;61.0;110.0;0.0;38.3;47.479;8.211;403.0;NaN;;24.331;;0 / 4;22382;2022-09-27 11:16:35:030
-7.84;-10.67;-1.38;-3.71;-9.01;-1.08;-5.18;-3.89;-2.34;0.52;0.84;-0.52;0.7;25.0;39.0;-12.0;85.0;61.0;110.0;0.0;38.3;47.479;8.211;403.0;NaN;;24.331;;0 / 4;22430;2022-09-27 11:16:35:078
-2.38;-8.33;2.6;-3.71;-9.01;-1.08;1.83;-1.88;0.35;0.62;0.37;-0.99;0.7;25.0;39.0;-12.0;85.0;61.0;110.0;0.0;38.3;47.479;8.211;403.0;NaN;;24.331;;0 / 4;22477;2022-09-27 11:16:35:125
-2.38;-8.33;2.6;-2.56;-9.46;-0.25;1.83;-1.88;0.35;0.62;0.37;-0.99;0.7;21.0;42.0;-17.0;84.0;67.0;106.0;0.0;38.3;47.479;8.211;403.0;NaN;;24.331;;0 / 4;22525;2022-09-27 11:16:35:173
-2.38;-8.33;2.6;-2.56;-9.46;-0.25;1.83;-1.88;0.35;0.62;0.37;-0.99;0.7;21.0;42.0;-17.0;84.0;67.0;106.0;0.0;38.3;47.479;8.211;403.0;NaN;;24.331;;0 / 4;22573;2022-09-27 11:16:35:221
-3.06;-8.65;0.9;-2.56;-9.46;-0.25;1.83;-1.88;0.35;0.83;0.97;-0.6;0.7;21.0;42.0;-17.0;84.0;67.0;106.0;0.0;38.3;47.479;8.211;403.0;NaN;;24.331;;0 / 4;22622;2022-09-27 11:16:35:270
-3.06;-8.65;0.9;-2.1;-9.58;-0.08;-0.83;-0.48;1.45;0.83;0.97;-0.6;0.7;21.0;42.0;-17.0;84.0;67.0;106.0;0.0;47.7;47.479;8.211;403.0;NaN;;24.331;;0 / 4;22669;2022-09-27 11:16:35:317
-0.74;-8.78;-0.47;-2.1;-9.58;-0.08;-0.83;-0.48;1.45;0.48;0.04;-0.23;0.7;18.0;41.0;-22.0;109.0;78.0;92.0;0.0;47.7;47.479;8.211;403.0;NaN;;24.331;;0 / 4;22717;2022-09-27 11:16:35:365
-0.74;-8.78;-0.47;-2.1;-9.58;-0.08;-0.83;-0.48;1.45;0.48;0.04;-0.23;0.7;18.0;41.0;-22.0;109.0;78.0;92.0;0.0;47.7;47.479;8.211;403.0;NaN;;24.331;;0 / 4;22765;2022-09-27 11:16:35:413
-0.74;-8.78;-0.47;-1.85;-9.58;0.94;0.24;0.62;-0.84;0.48;0.04;-0.23;0.7;18.0;41.0;-22.0;109.0;78.0;92.0;0.0;47.7;47.479;8.211;403.0;NaN;;24.331;;0 / 4;22813;2022-09-27 11:16:35:461
-1.93;-9.3;-2.09;-1.85;-9.58;0.94;0.24;0.62;-0.84;-0.09;-0.48;-0.63;0.7;18.0;41.0;-22.0;109.0;78.0;92.0;0.0;47.7;47.479;8.211;403.0;NaN;;24.331;;0 / 4;22861;2022-09-27 11:16:35:509
-1.93;-9.3;-2.09;-1.85;-9.58;0.94;0.24;0.62;-0.84;-0.09;-0.48;-0.63;0.7;13.0;41.0;-23.0;131.0;78.0;63.0;0.0;47.7;47.479;8.211;403.0;NaN;;24.331;;0 / 4;22909;2022-09-27 11:16:35:557
-4.42;-10.5;2.66;-1.06;-9.62;1.6;-0.04;0.07;-2.84;-0.09;-0.48;-0.63;0.7;13.0;41.0;-23.0;131.0;78.0;63.0;0.0;47.7;47.479;8.211;403.0;NaN;;24.331;;0 / 4;22956;2022-09-27 11:16:35:604
-4.42;-10.5;2.66;-1.06;-9.62;1.6;-0.04;0.07;-2.84;0.11;0.91;-0.33;0.7;13.0;41.0;-23.0;131.0;78.0;63.0;0.0;48.2;47.479;8.211;403.0;NaN;;24.331;;0 / 4;23005;2022-09-27 11:16:35:653
-4.42;-10.5;2.66;-1.06;-9.62;1.6;-0.04;0.07;-2.84;0.11;0.91;-0.33;0.7;13.0;41.0;-23.0;131.0;78.0;63.0;0.0;48.2;47.479;8.211;403.0;NaN;;24.331;;0 / 4;23052;2022-09-27 11:16:35:700
-5.63;-9.11;0.98;-0.49;-9.68;1.46;-4.79;-1.01;-0.17;0.11;0.91;-0.33;0.7;15.0;42.0;-20.0;205.0;81.0;19.0;0.0;48.2;47.479;8.211;403.0;NaN;;24.331;;0 / 4;23101;2022-09-27 11:16:35:749
-5.63;-9.11;0.98;-0.49;-9.68;1.46;-4.79;-1.01;-0.17;-2.27;0.88;1.21;0.7;15.0;42.0;-20.0;205.0;81.0;19.0;0.0;48.2;47.479;8.211;403.0;NaN;;24.331;;0 / 4;23149;2022-09-27 11:16:35:797
-3.27;-10.36;4.61;-1.55;-9.68;0.02;0.45;-1.1;-3.34;-2.27;0.88;1.21;0.7;15.0;42.0;-20.0;205.0;81.0;19.0;0.0;48.2;47.479;8.211;403.0;NaN;;24.331;;0 / 4;23196;2022-09-27 11:16:35:844
-3.27;-10.36;4.61;-1.55;-9.68;0.02;0.45;-1.1;-3.34;-2.27;0.88;1.21;0.7;15.0;42.0;-20.0;205.0;81.0;19.0;0.0;48.2;47.479;8.211;403.0;NaN;;24.331;;0 / 4;23245;2022-09-27 11:16:35:893
-3.27;-10.36;4.61;-1.55;-9.68;0.02;0.45;-1.1;-3.34;0.4;0.77;1.45;0.7;15.0;42.0;-20.0;205.0;81.0;19.0;0.0;48.2;47.479;8.211;403.0;NaN;;24.331;;0 / 4;23293;2022-09-27 11:16:35:941
-3.27;-9.0;-0.39;-3.62;-9.02;-1.31;-0.95;-3.07;5.16;0.4;0.77;1.45;0.7;27.0;40.0;-6.0;164.0;81.0;89.0;0.0;46.0;47.479;8.211;403.0;NaN;;24.331;;0 / 4;23341;2022-09-27 11:16:35:989
-3.27;-9.0;-0.39;-3.62;-9.02;-1.31;-0.95;-3.07;5.16;0.4;0.77;1.45;0.7;27.0;40.0;-6.0;164.0;81.0;89.0;0.0;46.0;47.479;8.211;403.0;NaN;;24.331;;0 / 4;23388;2022-09-27 11:16:36:036
-3.27;-9.0;-0.39;-3.62;-9.02;-1.31;-0.95;-3.07;5.16;0.4;0.77;1.45;0.7;27.0;40.0;-6.0;164.0;81.0;89.0;0.0;46.0;47.479;8.211;403.0;NaN;;24.331;;0 / 4;23437;2022-09-27 11:16:36:085
3.31;-6.11;-0.07;-4.24;-8.58;-2.11;6.39;1.55;2.88;0.36;1.31;0.45;0.7;27.0;40.0;-6.0;164.0;81.0;89.0;0.0;46.0;47.479;8.211;403.0;NaN;;24.331;;0 / 4;23484;2022-09-27 11:16:36:132
3.31;-6.11;-0.07;-4.24;-8.58;-2.11;6.39;1.55;2.88;0.36;1.31;0.45;0.7;34.0;35.0;-1.0;120.0;61.0;116.0;0.0;46.0;47.479;8.211;403.0;NaN;;24.331;;0 / 4;23533;2022-09-27 11:16:36:181
3.31;-6.11;-0.07;-4.24;-8.58;-2.11;6.39;1.55;2.88;0.36;1.31;0.45;0.7;34.0;35.0;-1.0;120.0;61.0;116.0;0.0;46.0;47.479;8.211;403.0;NaN;;24.331;;0 / 4;23582;2022-09-27 11:16:36:230
-9.42;-9.58;-0.72;-4.15;-8.82;-1.09;-2.07;-0.87;-1.9;0.74;0.09;-0.38;0.7;34.0;35.0;-1.0;120.0;61.0;116.0;0.0;46.0;47.479;8.211;403.0;NaN;;24.331;;0 / 4;23630;2022-09-27 11:16:36:278
-9.42;-9.58;-0.72;-4.15;-8.82;-1.09;-2.07;-0.87;-1.9;0.74;0.09;-0.38;0.7;34.0;35.0;-1.0;120.0;61.0;116.0;0.0;39.9;47.479;8.211;403.0;NaN;;24.331;;0 / 4;23676;2022-09-27 11:16:36:324
0.08;-9.52;-0.76;-3.6;-9.12;-0.15;0.47;-5.92;-1.82;0.43;0.75;-0.5;0.7;33.0;35.0;-6.0;130.0;64.0;105.0;0.0;39.9;47.479;8.211;403.0;NaN;;24.331;;0 / 4;23725;2022-09-27 11:16:36:373
0.08;-9.52;-0.76;-3.6;-9.12;-0.15;0.47;-5.92;-1.82;0.43;0.75;-0.5;0.7;33.0;35.0;-6.0;130.0;64.0;105.0;0.0;39.9;47.479;8.211;403.0;NaN;;24.331;;0 / 4;23773;2022-09-27 11:16:36:421
0.08;-9.52;-0.76;-3.6;-9.12;-0.15;0.47;-5.92;-1.82;0.43;0.75;-0.5;0.7;33.0;35.0;-6.0;130.0;64.0;105.0;0.0;39.9;47.479;8.211;403.0;NaN;;24.331;;0 / 4;23820;2022-09-27 11:16:36:468
-1.57;-10.73;4.55;-2.68;-9.43;0.15;3.51;-0.62;0.2;-0.11;0.93;-0.85;0.7;33.0;35.0;-6.0;130.0;64.0;105.0;0.0;39.9;47.479;8.211;403.0;NaN;;24.331;;0 / 4;23868;2022-09-27 11:16:36:516
-1.57;-10.73;4.55;-2.68;-9.43;0.15;3.51;-0.62;0.2;-0.11;0.93;-0.85;0.7;28.0;40.0;-10.0;153.0;74.0;87.0;0.0;39.9;47.479;8.211;403.0;NaN;;24.331;;0 / 4;23917;2022-09-27 11:16:36:565
-1.57;-10.73;4.55;-2.68;-9.43;0.15;3.51;-0.62;0.2;-0.11;0.93;-0.85;0.7;28.0;40.0;-10.0;153.0;74.0;87.0;0.0;36.8;47.479;8.211;403.0;NaN;;24.331;;0 / 4;23965;2022-09-27 11:16:36:613
-1.22;-8.81;-0.74;-1.93;-9.5;1.51;-2.68;0.73;-4.65;-0.13;-1.63;0.24;0.7;28.0;40.0;-10.0;153.0;74.0;87.0;0.0;36.8;47.479;8.211;403.0;NaN;;24.331;;0 / 4;24012;2022-09-27 11:16:36:660
-1.69;-8.69;2.6;-1.93;-9.5;1.51;-2.68;0.73;-4.65;-0.13;-1.63;0.24;0.7;28.0;40.0;-10.0;153.0;74.0;87.0;0.0;36.8;47.479;8.211;403.0;NaN;;24.331;;0 / 4;24061;2022-09-27 11:16:36:709
-1.69;-8.69;2.6;-1.93;-9.5;1.51;-2.68;0.73;-4.65;-0.13;-1.63;0.24;0.7;22.0;40.0;-17.0;180.0;76.0;52.0;0.0;36.8;47.479;8.211;403.0;NaN;;24.331;;0 / 4;24110;2022-09-27 11:16:36:758
-1.69;-8.69;2.6;-1.95;-9.52;1.32;0.76;-0.06;0.61;0.6;-1.12;-0.57;0.7;22.0;40.0;-17.0;180.0;76.0;52.0;0.0;36.8;47.479;8.211;403.0;NaN;;24.331;;0 / 4;24156;2022-09-27 11:16:36:804
-3.3;-9.3;1.8;-1.95;-9.52;1.32;0.76;-0.06;0.61;0.6;-1.12;-0.57;0.7;22.0;40.0;-17.0;180.0;76.0;52.0;0.0;36.8;47.479;8.211;403.0;NaN;;24.331;;0 / 4;24205;2022-09-27 11:16:36:853
-3.3;-9.3;1.8;-1.08;-9.57;1.84;-1.22;0.36;-2.4;0.6;-1.12;-0.57;0.7;22.0;40.0;-17.0;180.0;76.0;52.0;0.0;36.8;47.479;8.211;403.0;NaN;;24.331;;0 / 4;24253;2022-09-27 11:16:36:901
-3.3;-9.3;1.8;-1.08;-9.57;1.84;-1.22;0.36;-2.4;0.05;-0.14;-0.19;0.7;17.0;42.0;-20.0;196.0;77.0;31.0;0.0;28.3;47.479;8.211;403.0;NaN;;24.331;;0 / 4;24301;2022-09-27 11:16:36:949
-6.87;-10.88;-0.22;-0.88;-9.61;1.76;-2.78;-0.75;0.85;0.05;-0.14;-0.19;0.7;17.0;42.0;-20.0;196.0;77.0;31.0;0.0;28.3;47.479;8.211;403.0;NaN;;24.331;;0 / 4;24349;2022-09-27 11:16:36:997
-6.87;-10.88;-0.22;-0.88;-9.61;1.76;-2.78;-0.75;0.85;-2.55;0.12;1.58;0.7;17.0;42.0;-20.0;196.0;77.0;31.0;0.0;28.3;47.479;8.211;403.0;NaN;;24.331;;0 / 4;24396;2022-09-27 11:16:37:044
-6.87;-10.88;-0.22;-0.88;-9.61;1.76;-2.78;-0.75;0.85;-2.55;0.12;1.58;0.7;17.0;42.0;-20.0;196.0;77.0;31.0;0.0;28.3;47.479;8.211;403.0;NaN;;24.331;;0 / 4;24444;2022-09-27 11:16:37:092
-0.52;-10.02;3.82;-2.17;-9.56;0.35;-1.01;-2.19;-4.94;-2.55;0.12;1.58;0.7;17.0;42.0;-20.0;196.0;77.0;31.0;0.0;28.3;47.479;8.211;403.0;NaN;;24.331;;0 / 4;24493;2022-09-27 11:16:37:141
-0.52;-10.02;3.82;-2.17;-9.56;0.35;-1.01;-2.19;-4.94;-0.02;0.53;1.38;0.7;25.0;40.0;-10.0;161.0;77.0;81.0;0.0;28.3;47.479;8.211;403.0;NaN;;24.331;;0 / 4;24541;2022-09-27 11:16:37:189
-1.31;-7.87;-0.24;-4.02;-8.89;-0.93;-0.68;-2.78;3.59;-0.02;0.53;1.38;0.7;25.0;40.0;-10.0;161.0;77.0;81.0;0.0;28.3;47.479;8.211;403.0;NaN;;24.331;;0 / 4;24589;2022-09-27 11:16:37:237
-1.31;-7.87;-0.24;-4.02;-8.89;-0.93;-0.68;-2.78;3.59;-0.02;0.53;1.38;0.7;25.0;40.0;-10.0;161.0;77.0;81.0;0.0;36.5;47.479;8.211;403.0;NaN;;24.331;;0 / 4;24638;2022-09-27 11:16:37:286
-1.31;-7.87;-0.24;-4.02;-8.89;-0.93;-0.68;-2.78;3.59;0.67;1.64;-0.05;0.7;25.0;40.0;-10.0;161.0;77.0;81.0;0.0;36.5;47.479;8.211;403.0;NaN;;24.331;;0 / 4;24685;2022-09-27 11:16:37:333
3.11;-4.65;0.56;-4.55;-8.53;-1.67;6.33;3.05;2.45;0.67;1.64;-0.05;0.7;31.0;34.0;-4.0;138.0;65.0;103.0;0.0;36.5;47.479;8.211;403.0;NaN;;24.331;;0 / 4;24733;2022-09-27 11:16:37:381
3.11;-4.65;0.56;-4.55;-8.53;-1.67;6.33;3.05;2.45;0.67;1.64;-0.05;0.7;31.0;34.0;-4.0;138.0;65.0;103.0;0.0;36.5;47.479;8.211;403.0;NaN;;24.331;;0 / 4;24781;2022-09-27 11:16:37:429
3.11;-4.65;0.56;-4.55;-8.53;-1.67;6.33;3.05;2.45;0.22;0.29;0.02;0.7;31.0;34.0;-4.0;138.0;65.0;103.0;0.0;36.5;47.479;8.211;403.0;NaN;;24.331;;0 / 4;24829;2022-09-27 11:16:37:477
-3.69;-6.06;-0.22;-3.77;-8.95;-1.37;-7.53;-5.1;-3.8;0.22;0.29;0.02;0.7;31.0;34.0;-4.0;138.0;65.0;103.0;0.0;36.5;47.479;8.211;403.0;NaN;;24.331;;0 / 4;24877;2022-09-27 11:16:37:525
-3.69;-6.06;-0.22;-3.77;-8.95;-1.37;-7.53;-5.1;-3.8;0.31;0.01;-0.08;0.7;30.0;34.0;-6.0;122.0;66.0;110.0;0.0;36.5;47.479;8.211;403.0;NaN;;24.331;;0 / 4;24925;2022-09-27 11:16:37:573
-3.69;-6.06;-0.22;-3.77;-8.95;-1.37;-7.53;-5.1;-3.8;0.31;0.01;-0.08;0.7;30.0;34.0;-6.0;122.0;66.0;110.0;0.0;40.8;47.479;8.211;403.0;NaN;;24.331;;0 / 4;24973;2022-09-27 11:16:37:621
1.95;-5.93;1.51;-3.32;-9.18;-0.9;3.22;-3.63;0.55;0.31;0.01;-0.08;0.7;30.0;34.0;-6.0;122.0;66.0;110.0;0.0;40.8;47.479;8.211;403.0;NaN;;24.331;;0 / 4;25021;2022-09-27 11:16:37:669
1.95;-5.93;1.51;-3.32;-9.18;-0.9;3.22;-3.63;0.55;0.46;-0.15;-1.02;0.7;30.0;34.0;-6.0;122.0;66.0;110.0;0.0;40.8;47.479;8.211;403.0;NaN;;24.331;;0 / 4;25068;2022-09-27 11:16:37:716
-4.34;-8.63;1.29;-2.05;-9.58;-0.38;-1.05;-1.56;0.81;0.46;-0.15;-1.02;0.7;26.0;40.0;-6.0;122.0;69.0;105.0;0.0;40.8;47.479;8.211;403.0;NaN;;24.331;;0 / 4;25117;2022-09-27 11:16:37:765
-4.34;-8.63;1.29;-2.05;-9.58;-0.38;-1.05;-1.56;0.81;0.46;-0.15;-1.02;0.7;26.0;40.0;-6.0;122.0;69.0;105.0;0.0;40.8;47.479;8.211;403.0;NaN;;24.331;;0 / 4;25165;2022-09-27 11:16:37:813
-4.34;-8.63;1.29;-2.05;-9.58;-0.38;-1.05;-1.56;0.81;0.63;-0.17;-0.26;0.7;26.0;40.0;-6.0;122.0;69.0;105.0;0.0;40.8;47.479;8.211;403.0;NaN;;24.331;;0 / 4;25214;2022-09-27 11:16:37:862
-1.84;-9.05;0.66;-1.64;-9.66;0.43;-0.57;0.76;-1.78;0.63;-0.17;-0.26;0.7;26.0;40.0;-6.0;122.0;69.0;105.0;0.0;34.7;47.479;8.211;403.0;NaN;;24.331;;0 / 4;25261;2022-09-27 11:16:37:909
-1.84;-9.05;0.66;-1.64;-9.66;0.43;-0.57;0.76;-1.78;0.63;-0.17;-0.26;0.7;23.0;38.0;-9.0;171.0;80.0;75.0;0.0;34.7;47.479;8.211;403.0;NaN;;24.331;;0 / 4;25311;2022-09-27 11:16:37:959
-1.14;-9.44;1.83;-1.64;-9.66;0.43;-0.57;0.76;-1.78;0.61;0.56;-0.59;0.7;23.0;38.0;-9.0;171.0;80.0;75.0;0.0;34.7;47.479;8.211;403.0;NaN;;24.331;;0 / 4;25357;2022-09-27 11:16:38:005
-1.14;-9.44;1.83;-1.64;-9.66;0.43;-0.57;0.76;-1.78;0.61;0.56;-0.59;0.7;23.0;38.0;-9.0;171.0;80.0;75.0;0.0;34.7;47.479;8.211;403.0;NaN;;24.331;;0 / 4;25405;2022-09-27 11:16:38:053
-2.98;-9.09;2.0;-0.9;-9.7;1.11;-0.48;0.3;-0.39;-0.34;0.36;-0.4;0.7;23.0;38.0;-9.0;171.0;80.0;75.0;0.0;34.7;47.479;8.211;403.0;NaN;;24.331;;0 / 4;25453;2022-09-27 11:16:38:101
-2.98;-9.09;2.0;-0.9;-9.7;1.11;-0.48;0.3;-0.39;-0.34;0.36;-0.4;0.7;20.0;41.0;-10.0;213.0;82.0;39.0;0.0;34.7;47.479;8.211;403.0;NaN;;24.331;;0 / 4;25501;2022-09-27 11:16:38:149
-2.98;-9.09;2.0;-0.9;-9.7;1.11;-0.48;0.3;-0.39;-0.34;0.36;-0.4;0.7;20.0;41.0;-10.0;213.0;82.0;39.0;0.0;34.7;47.479;8.211;403.0;NaN;;24.331;;0 / 4;25548;2022-09-27 11:16:38:196
-4.21;-11.01;-4.63;-0.63;-9.75;0.89;-5.06;-1.48;1.0;-1.67;1.59;1.33;0.7;20.0;41.0;-10.0;213.0;82.0;39.0;0.0;36.0;47.479;8.211;403.0;NaN;;24.331;;0 / 4;25596;2022-09-27 11:16:38:244
-4.21;-11.01;-4.63;-0.63;-9.75;0.89;-5.06;-1.48;1.0;-1.67;1.59;1.33;0.7;20.0;41.0;-10.0;213.0;82.0;39.0;0.0;36.0;47.479;8.211;403.0;NaN;;24.331;;0 / 4;25644;2022-09-27 11:16:38:292
-4.21;-11.01;-4.63;-0.63;-9.75;0.89;-5.06;-1.48;1.0;-1.67;1.59;1.33;0.7;20.0;41.0;-10.0;213.0;82.0;39.0;0.0;36.0;47.479;8.211;403.0;NaN;;24.331;;0 / 4;25693;2022-09-27 11:16:38:341
-4.01;-11.67;4.13;-2.37;-9.44;-1.19;1.34;-1.32;3.61;0.15;0.49;1.42;0.7;27.0;35.0;2.0;247.0;84.0;35.0;0.0;36.0;47.479;8.211;403.0;NaN;;24.331;;0 / 4;25741;2022-09-27 11:16:38:389
-4.01;-11.67;4.13;-2.37;-9.44;-1.19;1.34;-1.32;3.61;0.15;0.49;1.42;0.7;27.0;35.0;2.0;247.0;84.0;35.0;0.0;36.0;47.479;8.211;403.0;NaN;;24.331;;0 / 4;25789;2022-09-27 11:16:38:437
-2.0;-9.22;4.36;-4.19;-8.77;-1.31;-1.42;0.52;4.87;0.15;0.49;1.42;0.7;27.0;35.0;2.0;247.0;84.0;35.0;0.0;36.0;47.479;8.211;403.0;NaN;;24.331;;0 / 4;25837;2022-09-27 11:16:38:485
-2.0;-9.22;4.36;-4.19;-8.77;-1.31;-1.42;0.52;4.87;1.9;3.83;0.79;0.7;27.0;35.0;2.0;247.0;84.0;35.0;0.0;36.0;47.479;8.211;403.0;NaN;;24.331;;0 / 4;25886;2022-09-27 11:16:38:534
-2.0;-9.22;4.36;-4.19;-8.77;-1.31;-1.42;0.52;4.87;1.9;3.83;0.79;0.7;37.0;25.0;11.0;179.0;63.0;107.0;0.0;33.3;47.479;8.211;403.0;NaN;;24.331;;0 / 4;25932;2022-09-27 11:16:38:580
-1.86;-9.51;-2.27;-4.41;-8.68;-1.17;5.49;-0.13;2.8;1.9;3.83;0.79;0.7;37.0;25.0;11.0;179.0;63.0;107.0;0.0;33.3;47.479;8.211;403.0;NaN;;24.331;;0 / 4;25980;2022-09-27 11:16:38:628
-1.86;-9.51;-2.27;-4.41;-8.68;-1.17;5.49;-0.13;2.8;1.9;3.83;0.79;0.7;37.0;25.0;11.0;179.0;63.0;107.0;0.0;33.3;47.479;8.211;403.0;NaN;;24.331;;0 / 4;26029;2022-09-27 11:16:38:677
-1.86;-9.51;-2.27;-4.41;-8.68;-1.17;5.49;-0.13;2.8;0.95;2.26;-0.1;0.7;37.0;25.0;11.0;179.0;63.0;107.0;0.0;33.3;47.479;8.211;403.0;NaN;;24.331;;0 / 4;26078;2022-09-27 11:16:38:726
-7.27;-9.75;-1.08;-3.94;-8.92;-1.0;-0.78;0.56;3.09;0.95;2.26;-0.1;0.7;30.0;28.0;23.0;219.0;62.0;105.0;0.0;33.3;47.479;8.211;403.0;NaN;;24.331;;0 / 4;26124;2022-09-27 11:16:38:772
-7.27;-9.75;-1.08;-3.94;-8.92;-1.0;-0.78;0.56;3.09;0.81;1.18;0.09;0.7;30.0;28.0;23.0;219.0;62.0;105.0;0.0;33.3;47.479;8.211;403.0;NaN;;24.331;;0 / 4;26173;2022-09-27 11:16:38:821
-7.27;-9.75;-1.08;-3.94;-8.92;-1.0;-0.78;0.56;3.09;0.81;1.18;0.09;0.7;30.0;28.0;23.0;219.0;62.0;105.0;0.0;33.3;47.479;8.211;403.0;NaN;;24.331;;0 / 4;26221;2022-09-27 11:16:38:869
-0.18;-15.87;-2.14;-3.5;-9.14;-0.56;5.72;-4.02;0.56;0.81;1.18;0.09;0.7;30.0;28.0;23.0;219.0;62.0;105.0;0.0;36.5;47.479;8.211;403.0;NaN;;24.331;;0 / 4;26268;2022-09-27 11:16:38:916
-0.18;-15.87;-2.14;-3.5;-9.14;-0.56;5.72;-4.02;0.56;0.0;-0.25;-1.2;0.7;22.0;33.0;29.0;243.0;69.0;99.0;0.0;36.5;47.479;8.211;403.0;NaN;;24.331;;0 / 4;26316;2022-09-27 11:16:38:964
-0.18;-15.87;-2.14;-3.5;-9.14;-0.56;5.72;-4.02;0.56;0.0;-0.25;-1.2;0.7;22.0;33.0;29.0;243.0;69.0;99.0;0.0;36.5;47.479;8.211;403.0;NaN;;24.331;;0 / 4;26365;2022-09-27 11:16:39:013
-4.75;-12.27;2.43;-2.07;-9.56;-0.7;-0.82;2.1;-0.28;0.0;-0.25;-1.2;0.6;11.0;38.0;32.0;243.0;69.0;99.0;0.0;36.5;47.479;8.211;403.0;NaN;;24.331;;0 / 4;26413;2022-09-27 11:16:39:061
-4.75;-12.27;2.43;-2.07;-9.56;-0.7;-0.82;2.1;-0.28;1.14;1.71;-0.35;0.6;11.0;38.0;32.0;243.0;69.0;99.0;0.0;36.5;47.479;8.211;403.0;NaN;;24.331;;0 / 4;26460;2022-09-27 11:16:39:108
-0.97;-9.57;0.25;-2.07;-9.56;-0.7;-0.82;2.1;-0.28;1.14;1.71;-0.35;0.6;11.0;38.0;32.0;243.0;69.0;99.0;0.0;36.5;47.479;8.211;403.0;NaN;;24.331;;0 / 4;26508;2022-09-27 11:16:39:156
-0.97;-9.57;0.25;-1.65;-9.67;0.05;-0.15;0.15;0.22;1.14;1.71;-0.35;0.6;2.0;42.0;28.0;282.0;80.0;88.0;0.0;29.3;47.479;8.211;403.0;NaN;;24.331;;0 / 4;26557;2022-09-27 11:16:39:205
-0.51;-9.21;2.71;-1.65;-9.67;0.05;-0.15;0.15;0.22;0.72;1.33;-0.37;0.6;2.0;42.0;28.0;282.0;80.0;88.0;0.0;29.3;47.479;8.211;403.0;NaN;;24.331;;0 / 4;26605;2022-09-27 11:16:39:253
-0.51;-9.21;2.71;-1.51;-9.68;0.34;0.83;0.33;1.14;0.72;1.33;-0.37;0.6;2.0;42.0;28.0;282.0;80.0;88.0;0.0;29.3;47.479;8.211;403.0;NaN;;24.331;;0 / 4;26652;2022-09-27 11:16:39:300
-0.51;-9.21;2.71;-1.51;-9.68;0.34;0.83;0.33;1.14;0.72;1.33;-0.37;0.6;-5.0;45.0;22.0;309.0;81.0;77.0;0.0;29.3;47.479;8.211;403.0;NaN;;24.331;;0 / 4;26700;2022-09-27 11:16:39:348
-1.77;-8.96;-0.16;-1.51;-9.68;0.34;0.83;0.33;1.14;0.26;0.52;-0.6;0.6;-5.0;45.0;22.0;309.0;81.0;77.0;0.0;29.3;47.479;8.211;403.0;NaN;;24.331;;0 / 4;26748;2022-09-27 11:16:39:396
-1.77;-8.96;-0.16;-0.82;-9.69;1.28;-0.49;0.01;-1.86;0.26;0.52;-0.6;0.6;-7.0;44.0;19.0;309.0;81.0;77.0;0.0;29.3;47.479;8.211;403.0;NaN;;24.331;;0 / 4;26797;2022-09-27 11:16:39:445
-4.4;-9.79;1.51;-0.82;-9.69;1.28;-0.49;0.01;-1.86;-0.13;0.91;-0.1;0.6;-7.0;44.0;19.0;309.0;81.0;77.0;0.0;29.3;47.479;8.211;403.0;NaN;;24.331;;0 / 4;26845;2022-09-27 11:16:39:493
-4.4;-9.79;1.51;-0.82;-9.69;1.28;-0.49;0.01;-1.86;-0.13;0.91;-0.1;0.6;-7.0;44.0;19.0;309.0;81.0;77.0;0.0;32.5;47.479;8.211;403.0;NaN;;24.331;;0 / 4;26893;2022-09-27 11:16:39:541
-4.4;-9.79;1.51;-0.48;-9.73;1.13;-3.66;0.06;0.81;-0.13;0.91;-0.1;0.6;-7.0;44.0;19.0;309.0;81.0;77.0;0.0;32.5;47.479;8.211;403.0;NaN;;24.331;;0 / 4;26941;2022-09-27 11:16:39:589
-2.44;-9.77;-1.16;-0.48;-9.73;1.13;-3.66;0.06;0.81;-1.75;2.49;1.09;0.6;-7.0;41.0;23.0;355.0;83.0;23.0;0.0;32.5;47.479;8.211;403.0;NaN;;24.331;;0 / 4;26989;2022-09-27 11:16:39:637
-2.44;-9.77;-1.16;-1.35;-9.71;-0.35;-2.45;0.04;-1.95;-1.75;2.49;1.09;0.6;-7.0;41.0;23.0;355.0;83.0;23.0;0.0;32.5;47.479;8.211;403.0;NaN;;24.331;;0 / 4;27037;2022-09-27 11:16:39:685
-2.44;-9.77;-1.16;-1.35;-9.71;-0.35;-2.45;0.04;-1.95;-1.75;2.49;1.09;0.6;-7.0;41.0;23.0;355.0;83.0;23.0;0.0;32.5;47.479;8.211;403.0;NaN;;24.331;;0 / 4;27085;2022-09-27 11:16:39:733
-4.19;-12.56;9.68;-1.35;-9.71;-0.35;-2.45;0.04;-1.95;0.67;0.25;1.66;0.6;-6.0;36.0;28.0;278.0;82.0;105.0;0.0;32.5;47.479;8.211;403.0;NaN;;24.331;;0 / 4;27132;2022-09-27 11:16:39:780
-4.19;-12.56;9.68;-3.31;-8.95;-2.26;-1.25;-3.32;10.33;0.67;0.25;1.66;0.6;-6.0;36.0;28.0;278.0;82.0;105.0;0.0;32.5;47.479;8.211;403.0;NaN;;24.331;;0 / 4;27181;2022-09-27 11:16:39:829
-1.18;-8.87;4.92;-3.31;-8.95;-2.26;-1.25;-3.32;10.33;0.67;0.25;1.66;0.6;-6.0;36.0;28.0;278.0;82.0;105.0;0.0;37.3;47.479;8.211;403.0;NaN;;24.331;;0 / 4;27229;2022-09-27 11:16:39:877
-1.18;-8.87;4.92;-3.31;-8.95;-2.26;-1.25;-3.32;10.33;1.57;3.1;1.07;0.6;-6.0;36.0;28.0;278.0;82.0;105.0;0.0;37.3;47.479;8.211;403.0;NaN;;24.331;;0 / 4;27277;2022-09-27 11:16:39:925
-1.18;-8.87;4.92;-4.33;-8.61;-1.82;3.68;0.1;5.78;1.57;3.1;1.07;0.6;-5.0;43.0;21.0;298.0;66.0;124.0;0.0;37.3;47.479;8.211;403.0;NaN;;24.331;;0 / 4;27325;2022-09-27 11:16:39:973
-2.27;-9.4;-3.2;-4.33;-8.61;-1.82;3.68;0.1;5.78;1.57;3.1;1.07;0.6;-5.0;43.0;21.0;298.0;66.0;124.0;0.0;37.3;47.479;8.211;403.0;NaN;;24.331;;0 / 4;27373;2022-09-27 11:16:40:021
-2.27;-9.4;-3.2;-4.33;-8.61;-1.82;3.68;0.1;5.78;1.57;3.1;1.07;0.6;-5.0;43.0;21.0;298.0;66.0;124.0;0.0;37.3;47.479;8.211;403.0;NaN;;24.331;;0 / 4;27421;2022-09-27 11:16:40:069
-2.27;-9.4;-3.2;-4.29;-8.76;-1.06;2.35;-0.43;-1.78;0.87;0.85;-0.37;0.6;-5.0;43.0;21.0;298.0;66.0;124.0;0.0;37.3;47.479;8.211;403.0;NaN;;24.331;;0 / 4;27469;2022-09-27 11:16:40:117
-7.76;-10.64;-2.63;-4.29;-8.76;-1.06;2.35;-0.43;-1.78;0.87;0.85;-0.37;0.6;-7.0;49.0;7.0;342.0;63.0;104.0;0.0;37.3;47.479;8.211;403.0;NaN;;24.331;;0 / 4;27516;2022-09-27 11:16:40:164
-7.76;-10.64;-2.63;-4.29;-8.76;-1.06;2.35;-0.43;-1.78;0.87;0.85;-0.37;0.6;-7.0;49.0;7.0;342.0;63.0;104.0;0.0;38.3;47.479;8.211;403.0;NaN;;24.331;;0 / 4;27565;2022-09-27 11:16:40:213
2.52;-13.12;-3.29;-3.86;-9.01;-0.28;-2.75;-3.68;-0.81;0.35;0.92;-0.45;0.6;-7.0;49.0;7.0;342.0;63.0;104.0;0.0;38.3;47.479;8.211;403.0;NaN;;24.331;;0 / 4;27613;2022-09-27 11:16:40:261
2.52;-13.12;-3.29;-3.86;-9.01;-0.28;-2.75;-3.68;-0.81;0.35;0.92;-0.45;0.6;-7.0;49.0;7.0;342.0;63.0;104.0;0.0;38.3;47.479;8.211;403.0;NaN;;24.331;;0 / 4;27662;2022-09-27 11:16:40:310
-2.53;-10.45;-0.14;-2.53;-9.47;0.06;1.58;2.38;0.09;0.44;0.72;-0.9;0.6;-13.0;47.0;3.0;353.0;67.0;94.0;0.0;38.3;47.479;8.211;403.0;NaN;;24.331;;0 / 4;27709;2022-09-27 11:16:40:357
-2.53;-10.45;-0.14;-2.53;-9.47;0.06;1.58;2.38;0.09;0.44;0.72;-0.9;0.6;-13.0;47.0;3.0;353.0;67.0;94.0;0.0;38.3;47.479;8.211;403.0;NaN;;24.331;;0 / 4;27756;2022-09-27 11:16:40:404
-2.53;-10.45;-0.14;-2.53;-9.47;0.06;1.58;2.38;0.09;0.44;0.72;-0.9;0.6;-13.0;47.0;3.0;353.0;67.0;94.0;0.0;38.3;47.479;8.211;403.0;NaN;;24.331;;0 / 4;27805;2022-09-27 11:16:40:453
-1.25;-9.55;0.14;-1.86;-9.6;0.77;-0.1;0.31;1.12;0.77;-0.76;0.06;0.6;-13.0;47.0;3.0;353.0;67.0;94.0;0.0;38.3;47.479;8.211;403.0;NaN;;24.331;;0 / 4;27852;2022-09-27 11:16:40:500
-1.25;-9.55;0.14;-1.86;-9.6;0.77;-0.1;0.31;1.12;0.77;-0.76;0.06;0.7;-15.0;47.0;-7.0;31.0;78.0;67.0;0.0;35.2;47.479;8.211;403.0;NaN;;24.331;;0 / 4;27901;2022-09-27 11:16:40:549
-1.25;-9.55;0.14;-1.86;-9.6;0.77;-0.1;0.31;1.12;0.77;-0.76;0.06;0.7;-15.0;47.0;-7.0;31.0;78.0;67.0;0.0;35.2;47.479;8.211;403.0;NaN;;24.331;;0 / 4;27949;2022-09-27 11:16:40:597
-1.08;-9.55;-0.32;-1.86;-9.6;0.77;-0.1;0.31;1.12;0.47;-0.73;-0.5;0.7;-19.0;47.0;-7.0;31.0;78.0;67.0;0.0;35.2;47.479;8.211;403.0;NaN;;24.331;;0 / 4;27997;2022-09-27 11:16:40:645
-1.08;-9.55;-0.32;-1.51;-9.57;1.53;1.09;-0.12;0.03;0.47;-0.73;-0.5;0.7;-19.0;47.0;-7.0;31.0;78.0;67.0;0.0;35.2;47.479;8.211;403.0;NaN;;24.331;;0 / 4;28045;2022-09-27 11:16:40:693
-1.08;-9.55;-0.32;-1.51;-9.57;1.53;1.09;-0.12;0.03;0.47;-0.73;-0.5;0.7;-19.0;47.0;-7.0;31.0;78.0;67.0;0.0;35.2;47.479;8.211;403.0;NaN;;24.331;;0 / 4;28093;2022-09-27 11:16:40:741
-6.0;-10.16;1.93;-1.51;-9.57;1.53;1.09;-0.12;0.03;-0.2;0.15;-0.21;0.7;-19.0;47.0;-7.0;31.0;78.0;67.0;0.0;35.2;47.479;8.211;403.0;NaN;;24.331;;0 / 4;28140;2022-09-27 11:16:40:788
-6.0;-10.16;1.93;-0.83;-9.65;1.54;-3.68;0.49;-0.7;-0.2;0.15;-0.21;0.8;-19.0;45.0;-8.0;48.0;77.0;45.0;0.0;29.6;47.479;8.211;403.0;NaN;;24.331;;0 / 4;28189;2022-09-27 11:16:40:837
-4.23;-11.47;-4.89;-0.83;-9.65;1.54;-3.68;0.49;-0.7;-1.89;1.21;1.82;0.8;-19.0;45.0;-8.0;48.0;77.0;45.0;0.0;29.6;47.479;8.211;403.0;NaN;;24.331;;0 / 4;28237;2022-09-27 11:16:40:885
-4.23;-11.47;-4.89;-0.83;-9.65;1.54;-3.68;0.49;-0.7;-1.89;1.21;1.82;0.8;-19.0;45.0;-8.0;48.0;77.0;45.0;0.0;29.6;47.479;8.211;403.0;NaN;;24.331;;0 / 4;28284;2022-09-27 11:16:40:932
1.46;-14.93;3.35;-1.93;-9.59;0.63;-2.79;-1.13;-6.01;-1.89;1.21;1.82;0.8;-12.0;50.0;-3.0;45.0;80.0;29.0;0.0;29.6;47.479;8.211;403.0;NaN;;24.331;;0 / 4;28332;2022-09-27 11:16:40:980
1.46;-14.93;3.35;-1.93;-9.59;0.63;-2.79;-1.13;-6.01;-0.2;-0.67;1.21;0.8;-12.0;50.0;-3.0;45.0;80.0;29.0;0.0;29.6;47.479;8.211;403.0;NaN;;24.331;;0 / 4;28380;2022-09-27 11:16:41:028
1.46;-14.93;3.35;-1.93;-9.59;0.63;-2.79;-1.13;-6.01;-0.2;-0.67;1.21;0.8;0.0;50.0;7.0;45.0;80.0;29.0;0.0;29.6;47.479;8.211;403.0;NaN;;24.331;;0 / 4;28428;2022-09-27 11:16:41:076
-5.44;-7.32;-0.15;-4.41;-8.74;-0.56;4.85;-4.58;1.99;-0.2;-0.67;1.21;0.8;0.0;50.0;7.0;45.0;80.0;29.0;0.0;29.6;47.479;8.211;403.0;NaN;;24.331;;0 / 4;28477;2022-09-27 11:16:41:125
2.71;-4.66;0.49;-4.41;-8.74;-0.56;4.85;-4.58;1.99;0.01;1.02;-0.19;0.8;0.0;50.0;7.0;45.0;80.0;29.0;0.0;35.0;47.479;8.211;403.0;NaN;;24.331;;0 / 4;28525;2022-09-27 11:16:41:173
2.71;-4.66;0.49;-4.79;-8.37;-1.76;5.72;2.63;2.02;0.01;1.02;-0.19;0.9;1.0;50.0;8.0;339.0;63.0;97.0;0.0;35.0;47.479;8.211;403.0;NaN;;24.331;;0 / 4;28573;2022-09-27 11:16:41:221
2.71;-4.66;0.49;-4.79;-8.37;-1.76;5.72;2.63;2.02;0.01;1.02;-0.19;0.9;1.0;50.0;8.0;339.0;63.0;97.0;0.0;35.0;47.479;8.211;403.0;NaN;;24.331;;0 / 4;28620;2022-09-27 11:16:41:268
-2.89;-11.05;-0.72;-4.79;-8.37;-1.76;5.72;2.63;2.02;0.14;-2.26;-0.25;0.9;1.0;50.0;8.0;339.0;63.0;97.0;0.0;35.0;47.479;8.211;403.0;NaN;;24.331;;0 / 4;28669;2022-09-27 11:16:41:317
-2.89;-11.05;-0.72;-3.96;-8.94;-0.69;-1.98;-2.8;-0.85;0.14;-2.26;-0.25;0.9;-2.0;50.0;6.0;346.0;59.0;110.0;0.0;35.0;47.479;8.211;403.0;NaN;;24.331;;0 / 4;28717;2022-09-27 11:16:41:365
-4.76;-16.5;1.67;-3.96;-8.94;-0.69;-1.98;-2.8;-0.85;0.14;-2.26;-0.25;0.9;-2.0;50.0;6.0;346.0;59.0;110.0;0.0;35.0;47.479;8.211;403.0;NaN;;24.331;;0 / 4;28765;2022-09-27 11:16:41:413
-4.76;-16.5;1.67;-3.96;-8.94;-0.69;-1.98;-2.8;-0.85;0.14;-2.26;-0.25;0.9;-2.0;50.0;6.0;346.0;59.0;110.0;0.0;35.0;47.479;8.211;403.0;NaN;;24.331;;0 / 4;28813;2022-09-27 11:16:41:461
-0.55;-8.75;1.28;-3.71;-9.07;0.2;0.29;-5.77;0.98;0.51;-0.5;-0.35;0.9;-2.0;50.0;6.0;346.0;59.0;110.0;0.0;39.7;47.479;8.211;403.0;NaN;;24.331;;0 / 4;28861;2022-09-27 11:16:41:509
-0.55;-8.75;1.28;-3.71;-9.07;0.2;0.29;-5.77;0.98;0.51;-0.5;-0.35;0.9;-6.0;51.0;3.0;354.0;68.0;87.0;0.0;39.7;47.479;8.211;403.0;NaN;;24.331;;0 / 4;28909;2022-09-27 11:16:41:557
-0.55;-8.75;1.28;-3.71;-9.07;0.2;0.29;-5.77;0.98;0.51;-0.5;-0.35;0.7;-6.0;51.0;3.0;354.0;68.0;87.0;0.0;39.7;47.479;8.211;403.0;NaN;;24.331;;0 / 4;28957;2022-09-27 11:16:41:605
-1.67;-9.1;7.7;-2.86;-9.33;0.93;2.78;-0.62;-2.49;-0.52;0.99;-0.46;0.7;-6.0;51.0;3.0;354.0;68.0;87.0;0.0;39.7;47.479;8.211;403.0;NaN;;24.331;;0 / 4;29006;2022-09-27 11:16:41:654
-1.67;-9.1;7.7;-2.86;-9.33;0.93;2.78;-0.62;-2.49;-0.52;0.99;-0.46;0.7;-6.0;51.0;3.0;354.0;68.0;87.0;0.0;39.7;47.479;8.211;403.0;NaN;;24.331;;0 / 4;29053;2022-09-27 11:16:41:701
-1.67;-9.1;7.7;-2.86;-9.33;0.93;2.78;-0.62;-2.49;-0.52;0.99;-0.46;0.7;-8.0;50.0;3.0;359.0;72.0;72.0;0.0;39.7;47.479;8.211;403.0;NaN;;24.331;;0 / 4;29100;2022-09-27 11:16:41:748
-1.58;-9.69;0.17;-2.36;-9.29;2.08;-0.54;0.46;-1.22;0.04;-2.75;0.19;0.7;-8.0;50.0;3.0;359.0;72.0;72.0;0.0;39.7;47.479;8.211;403.0;NaN;;24.331;;0 / 4;29149;2022-09-27 11:16:41:797
-1.58;-9.69;0.17;-2.36;-9.29;2.08;-0.54;0.46;-1.22;0.04;-2.75;0.19;0.7;-8.0;50.0;3.0;359.0;72.0;72.0;0.0;38.8;47.479;8.211;403.0;NaN;;24.331;;0 / 4;29197;2022-09-27 11:16:41:845
-3.05;-8.8;0.83;-2.36;-9.29;2.08;-0.54;0.46;-1.22;-0.02;-1.32;-0.39;0.7;-8.0;50.0;3.0;359.0;72.0;72.0;0.0;38.8;47.479;8.211;403.0;NaN;;24.331;;0 / 4;29246;2022-09-27 11:16:41:894
-3.05;-8.8;0.83;-1.75;-9.37;2.32;-0.88;0.49;-0.94;-0.02;-1.32;-0.39;0.7;-8.0;50.0;3.0;359.0;72.0;72.0;0.0;38.8;47.479;8.211;403.0;NaN;;24.331;;0 / 4;29293;2022-09-27 11:16:41:941
-3.75;-10.22;1.32;-1.75;-9.37;2.32;-0.88;0.49;-0.94;-0.02;-1.32;-0.39;0.7;-8.0;50.0;5.0;8.0;73.0;37.0;0.0;38.8;47.479;8.211;403.0;NaN;;24.331;;0 / 4;29341;2022-09-27 11:16:41:989
-3.75;-10.22;1.32;-1.75;-9.37;2.32;-0.88;0.49;-0.94;-0.19;-1.43;0.17;0.7;-8.0;50.0;5.0;8.0;73.0;37.0;0.0;38.8;47.479;8.211;403.0;NaN;;24.331;;0 / 4;29389;2022-09-27 11:16:42:037
-6.2;-9.51;-3.33;-1.2;-9.44;2.37;-2.21;-0.95;-1.18;-0.19;-1.43;0.17;0.7;-8.0;50.0;5.0;8.0;73.0;37.0;0.0;38.8;47.479;8.211;403.0;NaN;;24.331;;0 / 4;29436;2022-09-27 11:16:42:084
-6.2;-9.51;-3.33;-1.2;-9.44;2.37;-2.21;-0.95;-1.18;-0.19;-1.43;0.17;0.7;-8.0;50.0;5.0;8.0;73.0;37.0;0.0;38.8;47.479;8.211;403.0;NaN;;24.331;;0 / 4;29485;2022-09-27 11:16:42:133
2.09;-13.03;3.91;-1.2;-9.44;2.37;-2.21;-0.95;-1.18;-2.78;-2.74;2.21;0.7;-4.0;49.0;12.0;356.0;74.0;27.0;0.0;43.7;47.479;8.211;403.0;NaN;;24.331;;0 / 4;29533;2022-09-27 11:16:42:181
2.09;-13.03;3.91;-2.68;-9.41;0.68;1.51;-3.42;-3.28;-2.78;-2.74;2.21;0.7;-4.0;49.0;12.0;356.0;74.0;27.0;0.0;43.7;47.479;8.211;403.0;NaN;;24.331;;0 / 4;29581;2022-09-27 11:16:42:229
2.09;-13.03;3.91;-2.68;-9.41;0.68;1.51;-3.42;-3.28;-2.78;-2.74;2.21;0.7;-4.0;49.0;12.0;356.0;74.0;27.0;0.0;43.7;47.479;8.211;403.0;NaN;;24.331;;0 / 4;29628;2022-09-27 11:16:42:276
-6.88;-8.41;1.25;-2.68;-9.41;0.68;1.51;-3.42;-3.28;-0.77;0.13;1.05;0.7;-4.0;49.0;12.0;356.0;74.0;27.0;0.0;43.7;47.479;8.211;403.0;NaN;;24.331;;0 / 4;29678;2022-09-27 11:16:42:326
2.48;-5.15;0.49;-4.24;-8.84;0.01;-0.62;0.1;0.87;-0.77;0.13;1.05;0.7;17.0;40.0;23.0;272.0;74.0;76.0;0.0;43.7;47.479;8.211;403.0;NaN;;24.331;;0 / 4;29725;2022-09-27 11:16:42:373
2.48;-5.15;0.49;-4.24;-8.84;0.01;-0.62;0.1;0.87;-0.77;0.13;1.05;1.0;17.0;40.0;23.0;272.0;74.0;76.0;0.0;43.7;47.479;8.211;403.0;NaN;;24.331;;0 / 4;29773;2022-09-27 11:16:42:421
2.48;-5.15;0.49;-4.24;-8.84;0.01;-0.62;0.1;0.87;0.06;-0.27;-0.32;1.0;17.0;40.0;23.0;272.0;74.0;76.0;0.0;34.8;47.479;8.211;403.0;NaN;;24.331;;0 / 4;29821;2022-09-27 11:16:42:469
-1.32;-6.39;0.49;-4.54;-8.61;-1.17;6.09;3.14;2.02;0.06;-0.27;-0.32;1.0;17.0;40.0;23.0;272.0;74.0;76.0;0.0;34.8;47.479;8.211;403.0;NaN;;24.331;;0 / 4;29868;2022-09-27 11:16:42:516
-1.32;-6.39;0.49;-4.54;-8.61;-1.17;6.09;3.14;2.02;0.07;0.75;-0.28;1.0;16.0;42.0;25.0;273.0;61.0;104.0;0.0;34.8;47.479;8.211;403.0;NaN;;24.331;;0 / 4;29917;2022-09-27 11:16:42:565
-1.32;-6.39;0.49;-4.54;-8.61;-1.17;6.09;3.14;2.02;0.07;0.75;-0.28;1.0;16.0;42.0;25.0;273.0;61.0;104.0;0.0;34.8;47.479;8.211;403.0;NaN;;24.331;;0 / 4;29965;2022-09-27 11:16:42:613
-2.16;-10.98;1.69;-3.95;-8.95;-0.71;-8.14;-2.34;-3.75;0.07;0.75;-0.28;0.7;16.0;42.0;25.0;273.0;61.0;104.0;0.0;34.8;47.479;8.211;403.0;NaN;;24.331;;0 / 4;30012;2022-09-27 11:16:42:660
-2.16;-10.98;1.69;-3.95;-8.95;-0.71;-8.14;-2.34;-3.75;0.13;-0.11;-0.68;0.7;16.0;42.0;25.0;273.0;61.0;104.0;0.0;34.8;47.479;8.211;403.0;NaN;;24.331;;0 / 4;30060;2022-09-27 11:16:42:708
1.38;-6.74;0.19;-3.33;-9.22;-0.2;2.48;-2.17;-2.05;0.13;-0.11;-0.68;0.7;13.0;42.0;23.0;275.0;66.0;100.0;0.0;34.8;47.479;8.211;403.0;NaN;;24.331;;0 / 4;30109;2022-09-27 11:16:42:757
1.38;-6.74;0.19;-3.33;-9.22;-0.2;2.48;-2.17;-2.05;0.13;-0.11;-0.68;0.7;13.0;42.0;23.0;275.0;66.0;100.0;0.0;42.0;47.479;8.211;403.0;NaN;;24.331;;0 / 4;30157;2022-09-27 11:16:42:805
1.38;-6.74;0.19;-3.33;-9.22;-0.2;2.48;-2.17;-2.05;0.13;-0.11;-0.68;0.6;13.0;42.0;23.0;275.0;66.0;100.0;0.0;42.0;47.479;8.211;403.0;NaN;;24.331;;0 / 4;30205;2022-09-27 11:16:42:853
-4.09;-8.15;2.29;-2.29;-9.54;-0.02;-0.44;-1.44;2.71;0.48;0.82;-0.68;0.6;13.0;42.0;23.0;275.0;66.0;100.0;0.0;42.0;47.479;8.211;403.0;NaN;;24.331;;0 / 4;30253;2022-09-27 11:16:42:901
-4.09;-8.15;2.29;-2.29;-9.54;-0.02;-0.44;-1.44;2.71;0.48;0.82;-0.68;0.6;12.0;46.0;20.0;267.0;77.0;91.0;0.0;42.0;47.479;8.211;403.0;NaN;;24.331;;0 / 4;30306;2022-09-27 11:16:42:954
-4.09;-8.15;2.29;-2.29;-9.54;-0.02;-0.44;-1.44;2.71;0.48;0.82;-0.68;0.6;12.0;46.0;20.0;267.0;77.0;91.0;0.0;42.0;47.479;8.211;403.0;NaN;;24.331;;0 / 4;30348;2022-09-27 11:16:42:996
-1.31;-9.68;1.48;-2.02;-9.55;0.9;0.41;0.28;-2.21;-0.08;-0.38;-0.15;0.6;12.0;46.0;20.0;267.0;77.0;91.0;0.0;42.0;47.479;8.211;403.0;NaN;;24.331;;0 / 4;30396;2022-09-27 11:16:43:044
-1.31;-9.68;1.48;-2.02;-9.55;0.9;0.41;0.28;-2.21;-0.08;-0.38;-0.15;0.6;12.0;46.0;20.0;267.0;77.0;91.0;0.0;42.0;47.479;8.211;403.0;NaN;;24.331;;0 / 4;30445;2022-09-27 11:16:43:093
-2.9;-8.76;-2.95;-2.02;-9.55;0.9;0.41;0.28;-2.21;-0.08;-0.38;-0.15;0.6;12.0;46.0;20.0;267.0;77.0;91.0;0.0;33.1;47.479;8.211;403.0;NaN;;24.331;;0 / 4;30493;2022-09-27 11:16:43:141
-2.9;-8.76;-2.95;-1.22;-9.64;1.34;-1.77;0.83;-0.5;-0.08;-0.38;-0.15;0.6;9.0;49.0;16.0;297.0;77.0;66.0;0.0;33.1;47.479;8.211;403.0;NaN;;24.331;;0 / 4;30541;2022-09-27 11:16:43:189
-4.24;-10.1;2.02;-1.22;-9.64;1.34;-1.77;0.83;-0.5;-0.38;0.58;-0.36;0.6;9.0;49.0;16.0;297.0;77.0;66.0;0.0;33.1;47.479;8.211;403.0;NaN;;24.331;;0 / 4;30589;2022-09-27 11:16:43:237
-4.24;-10.1;2.02;-1.22;-9.64;1.34;-1.77;0.83;-0.5;-0.38;0.58;-0.36;0.6;9.0;49.0;16.0;297.0;77.0;66.0;0.0;33.1;47.479;8.211;403.0;NaN;;24.331;;0 / 4;30636;2022-09-27 11:16:43:284
-4.24;-10.1;2.02;-0.93;-9.7;1.09;-4.57;-0.93;0.59;-0.38;0.58;-0.36;0.6;9.0;49.0;16.0;297.0;77.0;66.0;0.0;33.1;47.479;8.211;403.0;NaN;;24.331;;0 / 4;30685;2022-09-27 11:16:43:333
-3.09;-11.56;-2.57;-0.93;-9.7;1.09;-4.57;-0.93;0.59;-1.75;1.75;0.87;0.6;4.0;47.0;21.0;320.0;82.0;40.0;0.0;33.1;47.479;8.211;403.0;NaN;;24.331;;0 / 4;30733;2022-09-27 11:16:43:381
-3.09;-11.56;-2.57;-0.93;-9.7;1.09;-4.57;-0.93;0.59;-1.75;1.75;0.87;0.6;4.0;47.0;21.0;320.0;82.0;40.0;0.0;33.1;47.479;8.211;403.0;NaN;;24.331;;0 / 4;30781;2022-09-27 11:16:43:429
-3.09;-11.56;-2.57;-0.93;-9.7;1.09;-4.57;-0.93;0.59;-1.75;1.75;0.87;0.6;4.0;47.0;21.0;320.0;82.0;40.0;0.0;36.7;47.479;8.211;403.0;NaN;;24.331;;0 / 4;30829;2022-09-27 11:16:43:477
-4.61;-12.29;6.88;-2.21;-9.47;-1.3;0.0;-1.78;2.29;-0.94;1.4;1.86;0.6;4.0;47.0;21.0;320.0;82.0;40.0;0.0;36.7;47.479;8.211;403.0;NaN;;24.331;;0 / 4;30878;2022-09-27 11:16:43:526
-4.61;-12.29;6.88;-2.21;-9.47;-1.3;0.0;-1.78;2.29;-0.94;1.4;1.86;0.6;8.0;39.0;32.0;243.0;75.0;120.0;0.0;36.7;47.479;8.211;403.0;NaN;;24.331;;0 / 4;30925;2022-09-27 11:16:43:573
-4.61;-12.29;6.88;-2.21;-9.47;-1.3;0.0;-1.78;2.29;-0.94;1.4;1.86;0.6;8.0;39.0;32.0;243.0;75.0;120.0;0.0;36.7;47.479;8.211;403.0;NaN;;24.331;;0 / 4;30973;2022-09-27 11:16:43:621
-1.52;-11.57;4.23;-4.03;-8.67;-2.19;-2.35;-1.21;9.67;2.09;4.66;1.32;0.6;8.0;39.0;32.0;243.0;75.0;120.0;0.0;36.7;47.479;8.211;403.0;NaN;;24.331;;0 / 4;31021;2022-09-27 11:16:43:669
-1.52;-11.57;4.23;-4.03;-8.67;-2.19;-2.35;-1.21;9.67;2.09;4.66;1.32;0.6;8.0;39.0;32.0;243.0;75.0;120.0;0.0;36.7;47.479;8.211;403.0;NaN;;24.331;;0 / 4;31069;2022-09-27 11:16:43:717
-4.73;-9.28;4.33;-4.58;-8.5;-1.7;4.4;-1.12;7.2;2.58;4.44;0.42;0.6;1.0;49.0;17.0;316.0;62.0;119.0;0.0;35.5;47.479;8.211;403.0;NaN;;24.331;;0 / 4;31116;2022-09-27 11:16:43:764
-4.73;-9.28;4.33;-4.58;-8.5;-1.7;4.4;-1.12;7.2;2.58;4.44;0.42;0.6;1.0;49.0;17.0;316.0;62.0;119.0;0.0;35.5;47.479;8.211;403.0;NaN;;24.331;;0 / 4;31166;2022-09-27 11:16:43:814
-4.73;-9.28;4.33;-4.58;-8.5;-1.7;4.4;-1.12;7.2;2.58;4.44;0.42;0.7;1.0;49.0;17.0;316.0;62.0;119.0;0.0;35.5;47.479;8.211;403.0;NaN;;24.331;;0 / 4;31212;2022-09-27 11:16:43:860
-0.7;-8.59;0.8;-4.41;-8.71;-0.97;2.87;-1.1;5.5;1.7;2.97;-0.2;0.7;1.0;49.0;17.0;316.0;62.0;119.0;0.0;35.5;47.479;8.211;403.0;NaN;;24.331;;0 / 4;31260;2022-09-27 11:16:43:908
-0.7;-8.59;0.8;-4.41;-8.71;-0.97;2.87;-1.1;5.5;1.7;2.97;-0.2;0.7;-3.0;52.0;0.0;359.0;63.0;102.0;0.0;35.5;47.479;8.211;403.0;NaN;;24.331;;0 / 4;31310;2022-09-27 11:16:43:958
-0.7;-8.59;0.8;-4.41;-8.71;-0.97;2.87;-1.1;5.5;1.7;2.97;-0.2;0.7;-3.0;52.0;0.0;359.0;63.0;102.0;0.0;35.5;47.479;8.211;403.0;NaN;;24.331;;0 / 4;31357;2022-09-27 11:16:44:005
2.5;-11.11;3.16;-3.82;-9.02;-0.48;-0.23;-1.17;1.6;0.69;1.61;-1.03;0.7;-3.0;52.0;0.0;359.0;63.0;102.0;0.0;35.5;47.479;8.211;403.0;NaN;;24.331;;0 / 4;31404;2022-09-27 11:16:44:052
2.5;-11.11;3.16;-3.82;-9.02;-0.48;-0.23;-1.17;1.6;0.69;1.61;-1.03;0.7;-3.0;52.0;0.0;359.0;63.0;102.0;0.0;31.5;47.479;8.211;403.0;NaN;;24.331;;0 / 4;31452;2022-09-27 11:16:44:100
-4.44;-6.12;-0.36;-3.82;-9.02;-0.48;-0.23;-1.17;1.6;0.69;1.61;-1.03;0.7;-7.0;48.0;-11.0;21.0;67.0;97.0;0.0;31.5;47.479;8.211;403.0;NaN;;24.331;;0 / 4;31501;2022-09-27 11:16:44:149
-4.44;-6.12;-0.36;-2.41;-9.5;-0.25;0.67;-2.85;-1.93;0.56;3.4;-0.39;0.7;-7.0;48.0;-11.0;21.0;67.0;97.0;0.0;31.5;47.479;8.211;403.0;NaN;;24.331;;0 / 4;31549;2022-09-27 11:16:44:197
-3.63;-10.85;2.01;-2.41;-9.5;-0.25;0.67;-2.85;-1.93;0.56;3.4;-0.39;0.7;-7.0;47.0;-16.0;21.0;67.0;97.0;0.0;31.5;47.479;8.211;403.0;NaN;;24.331;;0 / 4;31597;2022-09-27 11:16:44:245
-3.63;-10.85;2.01;-1.75;-9.65;-0.26;-1.73;-0.48;2.17;0.57;2.22;-0.19;0.7;-7.0;47.0;-16.0;21.0;67.0;97.0;0.0;31.5;47.479;8.211;403.0;NaN;;24.331;;0 / 4;31644;2022-09-27 11:16:44:292
-3.63;-10.85;2.01;-1.75;-9.65;-0.26;-1.73;-0.48;2.17;0.57;2.22;-0.19;0.7;-7.0;47.0;-16.0;21.0;67.0;97.0;0.0;31.5;47.479;8.211;403.0;NaN;;24.331;;0 / 4;31694;2022-09-27 11:16:44:342
2.55;-9.7;0.03;-1.75;-9.65;-0.26;-1.73;-0.48;2.17;0.57;2.22;-0.19;0.7;-7.0;47.0;-16.0;21.0;67.0;97.0;0.0;31.5;47.479;8.211;403.0;NaN;;24.331;;0 / 4;31741;2022-09-27 11:16:44:389
2.55;-9.7;0.03;-1.11;-9.66;1.3;3.12;-0.68;-1.99;0.57;2.22;-0.19;0.7;-5.0;43.0;-25.0;56.0;80.0;99.0;0.0;45.0;47.479;8.211;403.0;NaN;;24.331;;0 / 4;31789;2022-09-27 11:16:44:437
-2.61;-8.66;1.9;-1.11;-9.66;1.3;3.12;-0.68;-1.99;0.51;0.55;-0.76;0.7;-5.0;43.0;-25.0;56.0;80.0;99.0;0.0;45.0;47.479;8.211;403.0;NaN;;24.331;;0 / 4;31837;2022-09-27 11:16:44:485
-2.61;-8.66;1.9;-1.11;-9.66;1.3;3.12;-0.68;-1.99;0.51;0.55;-0.76;0.7;-5.0;43.0;-25.0;56.0;80.0;99.0;0.0;45.0;47.479;8.211;403.0;NaN;;24.331;;0 / 4;31885;2022-09-27 11:16:44:533
-2.61;-8.66;1.9;-0.35;-9.62;1.85;-1.39;-0.12;-0.16;0.51;0.55;-0.76;0.7;-4.0;41.0;-30.0;119.0;80.0;41.0;0.0;45.0;47.479;8.211;403.0;NaN;;24.331;;0 / 4;31932;2022-09-27 11:16:44:580
-5.24;-9.16;0.97;-0.35;-9.62;1.85;-1.39;-0.12;-0.16;-0.22;0.2;-0.43;0.7;-4.0;41.0;-30.0;119.0;80.0;41.0;0.0;45.0;47.479;8.211;403.0;NaN;;24.331;;0 / 4;31981;2022-09-27 11:16:44:629
-5.24;-9.16;0.97;-0.35;-9.62;1.85;-1.39;-0.12;-0.16;-0.22;0.2;-0.43;0.7;-4.0;41.0;-30.0;119.0;80.0;41.0;0.0;45.0;47.479;8.211;403.0;NaN;;24.331;;0 / 4;32030;2022-09-27 11:16:44:678
