
time,gFx,gFy,gFz,ax,ay,az,wx,wy,wz,
0.050526,0.0825,0.5163,0.7660,0.0000,0.0000,0.0000,0.0000,0.0000,0.0000,
0.050939,0.0973,0.4816,0.7922,0.0000,0.0000,0.0000,0.0000,0.0000,0.0000,
0.069461,0.0901,0.4641,0.8163,0.0000,0.0000,0.0000,0.0000,0.0000,0.0000,
0.081132,0.0991,0.4616,0.8308,0.0000,0.0000,0.0000,0.0000,0.0000,0.0000,
0.100983,0.0991,0.4616,0.8308,0.0000,0.0000,0.0000,-0.5426,-0.1398,0.0396,
0.101995,0.0966,0.4665,0.9118,0.0000,0.0000,0.0000,-0.5426,-0.1398,0.0396,
0.121238,0.1083,0.4669,0.9483,0.0000,0.0000,0.0000,-0.5426,-0.1398,0.0396,
0.147375,0.1048,0.4821,0.9001,0.0000,0.0000,0.0000,-0.5426,-0.1398,0.0396,
0.166917,0.1138,0.4702,0.8270,0.0000,0.0000,0.0000,-0.5426,-0.1398,0.0396,
0.169496,0.1138,0.4702,0.8270,0.0000,0.0000,0.0000,-0.1246,0.0955,-0.1041,
0.180404,0.1138,0.4702,0.8270,0.0000,0.0000,0.0000,-0.1246,0.0955,-0.1041,
0.187085,0.1442,0.4381,0.7979,0.0000,0.0000,0.0000,-0.1246,0.0955,-0.1041,
0.206808,0.1048,0.4295,0.8386,0.0000,0.0000,0.0000,-0.1246,0.0955,-0.1041,
0.226688,0.0515,0.4125,0.8972,0.0000,0.0000,0.0000,-0.1246,0.0955,-0.1041,
0.231296,0.0515,0.4125,0.8972,0.0000,0.0000,0.0000,-0.4368,-0.0045,-0.1942,
0.242989,0.0339,0.4663,0.9369,0.0000,0.0000,0.0000,-0.4368,-0.0045,-0.1942,
0.244772,0.0339,0.4663,0.9369,0.1326,0.0611,-0.0775,-0.4368,-0.0045,-0.1942,
0.265999,0.0667,0.4789,0.9363,0.1326,0.0611,-0.0775,-0.4368,-0.0045,-0.1942,
0.286914,0.0779,0.4042,0.8467,0.1326,0.0611,-0.0775,-0.4368,-0.0045,-0.1942,
0.295829,0.0779,0.4042,0.8467,0.1326,0.0611,-0.0775,-0.2268,0.0661,-0.0455,
0.304106,0.0990,0.3939,0.7994,0.1326,0.0611,-0.0775,-0.2268,0.0661,-0.0455,
0.306104,0.0990,0.3939,0.7994,-0.1917,-0.0169,0.0202,-0.2268,0.0661,-0.0455,
0.326125,0.0852,0.3496,0.7949,-0.1917,-0.0169,0.0202,-0.2268,0.0661,-0.0455,
0.346762,0.0753,0.3609,0.8246,-0.1917,-0.0169,0.0202,-0.2268,0.0661,-0.0455,
0.362910,0.1149,0.3520,0.8664,-0.1917,-0.0169,0.0202,-0.2268,0.0661,-0.0455,
0.365006,0.1149,0.3520,0.8664,-0.1917,-0.0169,0.0202,-0.6537,0.5817,0.1352,
0.371534,0.1149,0.3520,0.8664,0.0074,-0.0097,-0.2569,-0.6537,0.5817,0.1352,
0.386840,0.0735,0.2696,0.9155,0.0074,-0.0097,-0.2569,-0.6537,0.5817,0.1352,
0.406568,0.0364,0.2121,0.9137,0.0074,-0.0097,-0.2569,-0.6537,0.5817,0.1352,
0.422453,0.0141,0.2391,0.9264,0.0074,-0.0097,-0.2569,-0.6537,0.5817,0.1352,
0.428919,0.0141,0.2391,0.9264,0.0074,-0.0097,-0.2569,-0.6865,0.6352,-0.1759,
0.436516,0.0141,0.2391,0.9264,0.3634,-0.2728,-0.4544,-0.6865,0.6352,-0.1759,
0.444982,-0.0109,0.2907,0.9354,0.3634,-0.2728,-0.4544,-0.6865,0.6352,-0.1759,
0.461914,0.0001,0.3024,0.9138,0.3634,-0.2728,-0.4544,-0.6865,0.6352,-0.1759,
0.482056,0.0284,0.3052,0.8941,0.3634,-0.2728,-0.4544,-0.6865,0.6352,-0.1759,
0.493935,0.0284,0.3052,0.8941,0.3634,-0.2728,-0.4544,-0.7065,-0.0540,-0.4652,
0.501404,0.0284,0.3052,0.8941,0.0133,-0.7560,0.1306,-0.7065,-0.0540,-0.4652,
0.503556,0.0231,0.3091,0.8924,0.0133,-0.7560,0.1306,-0.7065,-0.0540,-0.4652,
0.521237,-0.0363,0.2803,0.8637,0.0133,-0.7560,0.1306,-0.7065,-0.0540,-0.4652,
0.546082,-0.0822,0.2728,0.8771,0.0133,-0.7560,0.1306,-0.7065,-0.0540,-0.4652,
0.555990,-0.0822,0.2728,0.8771,0.0133,-0.7560,0.1306,-1.1225,0.9712,-0.8031,
0.562812,-0.1365,0.2759,0.9591,0.0133,-0.7560,0.1306,-1.1225,0.9712,-0.8031,
0.565873,-0.1365,0.2759,0.9591,0.0640,0.2710,-0.1933,-1.1225,0.9712,-0.8031,
0.586657,-0.1801,0.2701,1.1136,0.0640,0.2710,-0.1933,-1.1225,0.9712,-0.8031,
0.601519,-0.2478,0.2337,1.1360,0.0640,0.2710,-0.1933,-1.1225,0.9712,-0.8031,
0.622108,-0.2507,0.2164,1.0729,0.0640,0.2710,-0.1933,-1.1225,0.9712,-0.8031,
0.624376,-0.2507,0.2164,1.0729,0.0640,0.2710,-0.1933,-1.1931,1.1883,-0.4167,
0.631351,-0.2507,0.2164,1.0729,-0.1255,0.6343,-0.2136,-1.1931,1.1883,-0.4167,
0.643051,-0.2235,0.1714,0.9299,-0.1255,0.6343,-0.2136,-1.1931,1.1883,-0.4167,
0.666030,-0.2486,0.0835,0.7658,-0.1255,0.6343,-0.2136,-1.1931,1.1883,-0.4167,
0.685889,-0.2486,0.0835,0.7658,-0.1255,0.6343,-0.2136,-0.7780,1.7974,-0.2701,
0.688388,-0.2750,0.0191,0.8552,-0.1255,0.6343,-0.2136,-0.7780,1.7974,-0.2701,
0.696534,-0.2750,0.0191,0.8552,-0.7547,0.7348,1.3047,-0.7780,1.7974,-0.2701,
0.704844,-0.3270,0.1137,1.0834,-0.7547,0.7348,1.3047,-0.7780,1.7974,-0.2701,
0.730014,-0.4458,0.1934,1.1854,-0.7547,0.7348,1.3047,-0.7780,1.7974,-0.2701,
0.746412,-0.4664,0.1574,1.1384,-0.7547,0.7348,1.3047,-0.7780,1.7974,-0.2701,
0.752982,-0.4664,0.1574,1.1384,-0.7547,0.7348,1.3047,-0.5855,2.4065,-0.2682,
0.763961,-0.4931,0.0880,1.0066,-0.7547,0.7348,1.3047,-0.5855,2.4065,-0.2682,
0.766973,-0.4931,0.0880,1.0066,0.3250,-0.2218,-0.4200,-0.5855,2.4065,-0.2682,
0.785786,-0.5090,0.0602,0.8805,0.3250,-0.2218,-0.4200,-0.5855,2.4065,-0.2682,
0.806527,-0.4532,0.0460,0.8092,0.3250,-0.2218,-0.4200,-0.5855,2.4065,-0.2682,
0.815466,-0.4532,0.0460,0.8092,0.3250,-0.2218,-0.4200,-0.2757,0.0356,0.0088,
0.826008,-0.4610,0.0214,0.7808,0.3250,-0.2218,-0.4200,-0.2757,0.0356,0.0088,
0.827841,-0.4610,0.0214,0.7808,-0.5723,0.7450,1.9997,-0.2757,0.0356,0.0088,
0.845687,-0.5635,0.0580,1.1130,-0.5723,0.7450,1.9997,-0.2757,0.0356,0.0088,
0.866000,-0.5342,0.0679,1.0584,-0.5723,0.7450,1.9997,-0.2757,0.0356,0.0088,
0.882106,-0.5342,0.0679,1.0584,-0.5723,0.7450,1.9997,-0.0186,0.5009,-0.1768,
0.884155,-0.4401,0.0533,0.8154,-0.5723,0.7450,1.9997,-0.0186,0.5009,-0.1768,
0.893148,-0.4401,0.0533,0.8154,-0.4744,-0.2217,-0.6249,-0.0186,0.5009,-0.1768,
0.903999,-0.5447,0.0512,0.7393,-0.4744,-0.2217,-0.6249,-0.0186,0.5009,-0.1768,
0.921411,-0.6059,0.0636,0.7801,-0.4744,-0.2217,-0.6249,-0.0186,0.5009,-0.1768,
0.946481,-0.4730,0.0841,0.8665,-0.4744,-0.2217,-0.6249,-0.0186,0.5009,-0.1768,
0.948485,-0.4730,0.0841,0.8665,-0.4744,-0.2217,-0.6249,-0.0558,0.2160,0.0734,
0.955745,-0.4730,0.0841,0.8665,-0.6792,0.0683,0.6770,-0.0558,0.2160,0.0734,
0.962936,-0.4323,0.0729,0.8529,-0.6792,0.0683,0.6770,-0.0558,0.2160,0.0734,
0.985266,-0.4509,0.0455,0.8418,-0.6792,0.0683,0.6770,-0.0558,0.2160,0.0734,
1.005993,-0.4974,0.0316,0.8379,-0.6792,0.0683,0.6770,-0.0558,0.2160,0.0734,
1.012872,-0.4974,0.0316,0.8379,-0.6792,0.0683,0.6770,-0.3485,0.9657,0.0155,
1.022671,-0.5412,0.0163,0.8163,-0.6792,0.0683,0.6770,-0.3485,0.9657,0.0155,
1.024827,-0.5412,0.0163,0.8163,-0.4879,0.1767,-0.6253,-0.3485,0.9657,0.0155,
1.045441,-0.5694,0.0004,0.8291,-0.4879,0.1767,-0.6253,-0.3485,0.9657,0.0155,
1.065637,-0.6446,0.0245,1.1476,-0.4879,0.1767,-0.6253,-0.3485,0.9657,0.0155,
1.075859,-0.6446,0.0245,1.1476,-0.4879,0.1767,-0.6253,-0.2675,0.7826,0.0697,
1.081201,-0.5057,-0.0100,0.7143,-0.4879,0.1767,-0.6253,-0.2675,0.7826,0.0697,
1.086778,-0.5057,-0.0100,0.7143,0.3533,0.0194,-0.1146,-0.2675,0.7826,0.0697,
1.101349,-0.5230,-0.0121,0.7054,0.3533,0.0194,-0.1146,-0.2675,0.7826,0.0697,
1.121203,-0.5197,0.0003,0.8683,0.3533,0.0194,-0.1146,-0.2675,0.7826,0.0697,
1.144319,-0.6332,0.0112,0.8142,0.3533,0.0194,-0.1146,-0.2675,0.7826,0.0697,
1.146613,-0.6332,0.0112,0.8142,0.3533,0.0194,-0.1146,0.0122,-0.2906,-0.0842,
1.155534,-0.6332,0.0112,0.8142,-0.1219,-0.1832,0.5130,0.0122,-0.2906,-0.0842,
1.165994,-0.5301,-0.0113,0.8697,-0.1219,-0.1832,0.5130,0.0122,-0.2906,-0.0842,
1.181163,-0.4864,-0.0260,0.8500,-0.1219,-0.1832,0.5130,0.0122,-0.2906,-0.0842,
1.201476,-0.5924,0.0000,0.7878,-0.1219,-0.1832,0.5130,0.0122,-0.2906,-0.0842,
1.205939,-0.5924,0.0000,0.7878,-0.1219,-0.1832,0.5130,0.0439,-0.7230,-0.0733,
1.216045,-0.5924,0.0000,0.7878,-0.3003,-0.1924,-0.3147,0.0439,-0.7230,-0.0733,
1.225398,-0.5026,-0.0167,0.8160,-0.3003,-0.1924,-0.3147,0.0439,-0.7230,-0.0733,
1.242311,-0.4641,-0.0160,0.8621,-0.3003,-0.1924,-0.3147,0.0439,-0.7230,-0.0733,
1.261854,-0.4410,-0.0090,0.8708,-0.3003,-0.1924,-0.3147,0.0439,-0.7230,-0.0733,
1.271811,-0.4410,-0.0090,0.8708,-0.3003,-0.1924,-0.3147,-0.0017,-2.0869,-0.0166,
1.281959,-0.4370,0.0442,0.8823,-0.3003,-0.1924,-0.3147,-0.0017,-2.0869,-0.0166,
1.284532,-0.4370,0.0442,0.8823,-0.3634,-0.3210,-0.4361,-0.0017,-2.0869,-0.0166,
1.303816,-0.4160,0.0767,0.9464,-0.3634,-0.3210,-0.4361,-0.0017,-2.0869,-0.0166,
1.321087,-0.3417,-0.0063,0.9628,-0.3634,-0.3210,-0.4361,-0.0017,-2.0869,-0.0166,
1.335431,-0.3417,-0.0063,0.9628,-0.3634,-0.3210,-0.4361,-0.0162,-2.0342,0.0245,
1.345518,-0.4193,-0.0097,0.9373,-0.3634,-0.3210,-0.4361,-0.0162,-2.0342,0.0245,
1.347560,-0.4193,-0.0097,0.9373,-0.9585,-0.1194,-0.6200,-0.0162,-2.0342,0.0245,
1.365874,-0.3138,-0.0155,0.9722,-0.9585,-0.1194,-0.6200,-0.0162,-2.0342,0.0245,
1.385525,-0.1563,-0.0141,1.0006,-0.9585,-0.1194,-0.6200,-0.0162,-2.0342,0.0245,
1.402026,-0.1563,-0.0141,1.0006,-0.9585,-0.1194,-0.6200,-0.0201,-0.6150,0.0548,
1.403927,-0.1427,-0.0203,0.9689,-0.9585,-0.1194,-0.6200,-0.0201,-0.6150,0.0548,
1.411793,-0.1427,-0.0203,0.9689,-1.3136,0.0139,-0.1448,-0.0201,-0.6150,0.0548,
1.421732,-0.2294,0.0208,0.9464,-1.3136,0.0139,-0.1448,-0.0201,-0.6150,0.0548,
1.443441,-0.1385,0.0116,0.8913,-1.3136,0.0139,-0.1448,-0.0201,-0.6150,0.0548,
1.465997,-0.1385,0.0116,0.8913,-1.3136,0.0139,-0.1448,0.0032,-3.5370,-0.1131,
1.468139,-0.1875,0.0215,0.9390,-1.3136,0.0139,-0.1448,0.0032,-3.5370,-0.1131,
1.477496,-0.1875,0.0215,0.9390,0.2318,-0.2640,0.0378,0.0032,-3.5370,-0.1131,
1.485185,0.1120,-0.0062,1.2006,0.2318,-0.2640,0.0378,0.0032,-3.5370,-0.1131,
1.503251,0.0615,0.0374,0.8353,0.2318,-0.2640,0.0378,0.0032,-3.5370,-0.1131,
1.521240,-0.0358,-0.0075,1.0035,0.2318,-0.2640,0.0378,0.0032,-3.5370,-0.1131,
1.531618,-0.0358,-0.0075,1.0035,0.2318,-0.2640,0.0378,-0.0114,-0.2407,-0.0449,
1.541663,-0.0039,-0.0014,1.0196,0.2318,-0.2640,0.0378,-0.0114,-0.2407,-0.0449,
1.543250,-0.0039,-0.0014,1.0196,-1.3688,0.0357,0.5607,-0.0114,-0.2407,-0.0449,
1.565872,-0.0010,-0.0005,1.0000,-1.3688,0.0357,0.5607,-0.0114,-0.2407,-0.0449,
1.587941,0.0012,-0.0018,0.9964,-1.3688,0.0357,0.5607,-0.0114,-0.2407,-0.0449,
1.597006,0.0012,-0.0018,0.9964,-1.3688,0.0357,0.5607,-0.0012,-0.0023,0.0002,
1.611127,0.0014,-0.0002,0.9971,-1.3688,0.0357,0.5607,-0.0012,-0.0023,0.0002,
1.613074,0.0014,-0.0002,0.9971,0.0809,-0.0658,-0.9253,-0.0012,-0.0023,0.0002,
1.626842,0.0001,-0.0019,0.9976,0.0809,-0.0658,-0.9253,-0.0012,-0.0023,0.0002,
1.645475,0.0007,-0.0012,0.9982,0.0809,-0.0658,-0.9253,-0.0012,-0.0023,0.0002,
1.663015,0.0004,-0.0011,0.9959,0.0809,-0.0658,-0.9253,-0.0012,-0.0023,0.0002,
1.664770,0.0004,-0.0011,0.9959,0.0809,-0.0658,-0.9253,-0.0004,-0.0001,-0.0001,
1.671713,0.0004,-0.0011,0.9959,-0.0375,-0.1232,0.0205,-0.0004,-0.0001,-0.0001,
1.685547,0.0007,-0.0011,0.9975,-0.0375,-0.1232,0.0205,-0.0004,-0.0001,-0.0001,
1.704149,0.0006,-0.0006,0.9970,-0.0375,-0.1232,0.0205,-0.0004,-0.0001,-0.0001,
1.728052,0.0003,-0.0013,0.9982,-0.0375,-0.1232,0.0205,-0.0004,-0.0001,-0.0001,
1.729549,0.0003,-0.0013,0.9982,-0.0375,-0.1232,0.0205,-0.0001,0.0006,0.0002,
1.735680,0.0003,-0.0013,0.9982,-0.0342,-0.1234,0.0133,-0.0001,0.0006,0.0002,
1.745463,0.0009,-0.0012,0.9965,-0.0342,-0.1234,0.0133,-0.0001,0.0006,0.0002,
1.765268,0.0009,-0.0008,0.9979,-0.0342,-0.1234,0.0133,-0.0001,0.0006,0.0002,
1.785471,0.0005,-0.0009,0.9979,-0.0342,-0.1234,0.0133,-0.0001,0.0006,0.0002,
1.793782,0.0005,-0.0009,0.9979,-0.0342,-0.1234,0.0133,-0.0002,0.0003,0.0001,
1.802682,0.0005,-0.0009,0.9979,-0.0324,-0.1143,0.0157,-0.0002,0.0003,0.0001,
1.805384,0.0001,-0.0013,0.9970,-0.0324,-0.1143,0.0157,-0.0002,0.0003,0.0001,
1.825236,0.0010,-0.0012,0.9975,-0.0324,-0.1143,0.0157,-0.0002,0.0003,0.0001,
1.842003,0.0011,-0.0012,0.9976,-0.0324,-0.1143,0.0157,-0.0002,0.0003,0.0001,
1.855774,0.0011,-0.0012,0.9976,-0.0324,-0.1143,0.0157,0.0000,0.0003,0.0001,
1.866141,0.0004,-0.0011,0.9989,-0.0324,-0.1143,0.0157,0.0000,0.0003,0.0001,
1.867985,0.0004,-0.0011,0.9989,-0.0326,-0.1105,0.0165,0.0000,0.0003,0.0001,
1.885734,0.0006,-0.0013,0.9970,-0.0326,-0.1105,0.0165,0.0000,0.0003,0.0001,
1.904249,0.0010,-0.0008,0.9980,-0.0326,-0.1105,0.0165,0.0000,0.0003,0.0001,
1.921419,0.0014,-0.0012,0.9978,-0.0326,-0.1105,0.0165,0.0000,0.0003,0.0001,
1.922863,0.0014,-0.0012,0.9978,-0.0326,-0.1105,0.0165,-0.0001,0.0002,0.0003,
1.932212,0.0014,-0.0012,0.9978,-0.0284,-0.1076,0.0195,-0.0001,0.0002,0.0003,
1.942415,0.0011,-0.0011,0.9975,-0.0284,-0.1076,0.0195,-0.0001,0.0002,0.0003,
1.962302,0.0005,-0.0014,0.9968,-0.0284,-0.1076,0.0195,-0.0001,0.0002,0.0003,
1.986093,0.0007,-0.0011,0.9976,-0.0284,-0.1076,0.0195,-0.0001,0.0002,0.0003,
1.988307,0.0007,-0.0011,0.9976,-0.0284,-0.1076,0.0195,0.0000,0.0004,0.0002,
1.996505,0.0007,-0.0011,0.9976,-0.0239,-0.1033,0.0156,0.0000,0.0004,0.0002,
2.005930,0.0007,-0.0011,0.9973,-0.0239,-0.1033,0.0156,0.0000,0.0004,0.0002,
2.025320,0.0007,-0.0006,0.9978,-0.0239,-0.1033,0.0156,0.0000,0.0004,0.0002,
2.043053,0.0004,-0.0005,0.9975,-0.0239,-0.1033,0.0156,0.0000,0.0004,0.0002,
2.051227,0.0004,-0.0005,0.9975,-0.0239,-0.1033,0.0156,0.0001,0.0006,0.0001,
2.062658,0.0000,-0.0009,0.9979,-0.0239,-0.1033,0.0156,0.0001,0.0006,0.0001,
2.064311,0.0000,-0.0009,0.9979,-0.0258,-0.0924,0.0102,0.0001,0.0006,0.0001,
2.085924,0.0005,-0.0012,0.9978,-0.0258,-0.0924,0.0102,0.0001,0.0006,0.0001,
2.100915,0.0012,-0.0013,0.9982,-0.0258,-0.0924,0.0102,0.0001,0.0006,0.0001,
2.114928,0.0012,-0.0013,0.9982,-0.0258,-0.0924,0.0102,0.0002,0.0004,0.0002,
2.124314,0.0006,-0.0018,0.9980,-0.0258,-0.0924,0.0102,0.0002,0.0004,0.0002,
2.125669,0.0006,-0.0018,0.9980,-0.0245,-0.0776,0.0134,0.0002,0.0004,0.0002,
2.141883,0.0010,-0.0012,0.9970,-0.0245,-0.0776,0.0134,0.0002,0.0004,0.0002,
2.165211,0.0009,-0.0011,0.9982,-0.0245,-0.0776,0.0134,0.0002,0.0004,0.0002,
2.182140,0.0005,-0.0008,0.9978,-0.0245,-0.0776,0.0134,0.0002,0.0004,0.0002,
2.183644,0.0005,-0.0008,0.9978,-0.0245,-0.0776,0.0134,0.0004,0.0002,0.0001,
2.192043,0.0005,-0.0008,0.9978,-0.0185,-0.0759,0.0142,0.0004,0.0002,0.0001,
2.201985,0.0009,-0.0009,0.9986,-0.0185,-0.0759,0.0142,0.0004,0.0002,0.0001,
2.222110,0.0009,-0.0009,0.9976,-0.0185,-0.0759,0.0142,0.0004,0.0002,0.0001,
2.242137,0.0006,-0.0013,0.9976,-0.0185,-0.0759,0.0142,0.0004,0.0002,0.0001,
2.245491,0.0006,-0.0013,0.9976,-0.0185,-0.0759,0.0142,0.0000,0.0002,0.0003,
2.254878,0.0006,-0.0013,0.9976,-0.0161,-0.0634,0.0113,0.0000,0.0002,0.0003,
2.264900,0.0001,-0.0016,0.9979,-0.0161,-0.0634,0.0113,0.0000,0.0002,0.0003,
2.281945,-0.0001,-0.0014,0.9973,-0.0161,-0.0634,0.0113,0.0000,0.0002,0.0003,
2.304784,0.0007,-0.0011,0.9980,-0.0161,-0.0634,0.0113,0.0000,0.0002,0.0003,
2.312625,0.0007,-0.0011,0.9980,-0.0161,-0.0634,0.0113,0.0001,0.0006,-0.0000,
2.326824,0.0009,-0.0006,0.9973,-0.0161,-0.0634,0.0113,0.0001,0.0006,-0.0000,
2.328830,0.0009,-0.0006,0.9973,-0.0165,-0.0586,0.0097,0.0001,0.0006,-0.0000,
2.343213,0.0006,-0.0009,0.9974,-0.0165,-0.0586,0.0097,0.0001,0.0006,-0.0000,
2.366395,0.0006,-0.0008,0.9974,-0.0165,-0.0586,0.0097,0.0001,0.0006,-0.0000,
2.375349,0.0006,-0.0008,0.9974,-0.0165,-0.0586,0.0097,0.0001,-0.0000,0.0005,
2.385564,0.0005,-0.0013,0.9978,-0.0165,-0.0586,0.0097,0.0001,-0.0000,0.0005,
2.387481,0.0005,-0.0013,0.9978,-0.0149,-0.0504,0.0073,0.0001,-0.0000,0.0005,
2.401745,0.0007,-0.0009,0.9973,-0.0149,-0.0504,0.0073,0.0001,-0.0000,0.0005,
2.423586,0.0007,-0.0009,0.9976,-0.0149,-0.0504,0.0073,0.0001,-0.0000,0.0005,
2.442281,0.0005,-0.0007,0.9971,-0.0149,-0.0504,0.0073,0.0001,-0.0000,0.0005,
2.443439,0.0005,-0.0007,0.9971,-0.0149,-0.0504,0.0073,-0.0001,0.0004,0.0001,
2.451471,0.0005,-0.0007,0.9971,-0.0126,-0.0441,0.0058,-0.0001,0.0004,0.0001,
2.465585,0.0010,-0.0016,0.9979,-0.0126,-0.0441,0.0058,-0.0001,0.0004,0.0001,
2.485352,0.0010,-0.0011,0.9975,-0.0126,-0.0441,0.0058,-0.0001,0.0004,0.0001,
2.505019,0.0009,-0.0009,0.9973,-0.0126,-0.0441,0.0058,-0.0001,0.0004,0.0001,
2.507317,0.0009,-0.0009,0.9973,-0.0126,-0.0441,0.0058,0.0002,0.0005,0.0003,
2.515631,0.0009,-0.0009,0.9973,-0.0105,-0.0391,0.0036,0.0002,0.0005,0.0003,
2.526074,0.0011,-0.0014,0.9974,-0.0105,-0.0391,0.0036,0.0002,0.0005,0.0003,
2.542652,0.0009,-0.0012,0.9974,-0.0105,-0.0391,0.0036,0.0002,0.0005,0.0003,
2.565277,0.0005,-0.0008,0.9980,-0.0105,-0.0391,0.0036,0.0002,0.0005,0.0003,
2.570835,0.0005,-0.0008,0.9980,-0.0105,-0.0391,0.0036,0.0003,0.0004,0.0004,
2.580907,0.0005,-0.0012,0.9969,-0.0105,-0.0391,0.0036,0.0003,0.0004,0.0004,
2.582462,0.0005,-0.0012,0.9969,-0.0056,-0.0374,0.0041,0.0003,0.0004,0.0004,
2.602164,0.0012,-0.0013,0.9978,-0.0056,-0.0374,0.0041,0.0003,0.0004,0.0004,
2.624667,0.0009,-0.0014,0.9974,-0.0056,-0.0374,0.0041,0.0003,0.0004,0.0004,
2.635522,0.0009,-0.0014,0.9974,-0.0056,-0.0374,0.0041,0.0001,0.0004,-0.0001,
2.646526,0.0003,-0.0007,0.9976,-0.0056,-0.0374,0.0041,0.0001,0.0004,-0.0001,
2.648610,0.0003,-0.0007,0.9976,-0.0092,-0.0318,0.0034,0.0001,0.0004,-0.0001,
2.665669,0.0004,-0.0018,0.9973,-0.0092,-0.0318,0.0034,0.0001,0.0004,-0.0001,
2.684950,-0.0012,-0.0011,0.9978,-0.0092,-0.0318,0.0034,0.0001,0.0004,-0.0001,
2.700869,0.0021,-0.0009,0.9971,-0.0092,-0.0318,0.0034,0.0001,0.0004,-0.0001,
2.702885,0.0021,-0.0009,0.9971,-0.0092,-0.0318,0.0034,0.0004,0.0005,-0.0000,
2.711332,0.0021,-0.0009,0.9971,-0.0061,-0.0291,0.0040,0.0004,0.0005,-0.0000,
2.724388,0.0026,-0.0013,0.9980,-0.0061,-0.0291,0.0040,0.0004,0.0005,-0.0000,
2.741609,-0.0001,-0.0009,0.9973,-0.0061,-0.0291,0.0040,0.0004,0.0005,-0.0000,
2.766262,0.0001,-0.0009,0.9976,-0.0061,-0.0291,0.0040,0.0004,0.0005,-0.0000,
2.768992,0.0001,-0.0009,0.9976,-0.0061,-0.0291,0.0040,-0.0004,0.0002,0.0001,
2.775669,0.0001,-0.0009,0.9976,-0.0055,-0.0263,0.0035,-0.0004,0.0002,0.0001,
2.785682,0.0009,-0.0007,0.9975,-0.0055,-0.0263,0.0035,-0.0004,0.0002,0.0001,
2.802045,0.0009,-0.0012,0.9971,-0.0055,-0.0263,0.0035,-0.0004,0.0002,0.0001,
2.823482,0.0004,-0.0014,0.9975,-0.0055,-0.0263,0.0035,-0.0004,0.0002,0.0001,
2.830929,0.0004,-0.0014,0.9975,-0.0055,-0.0263,0.0035,0.0001,-0.0002,0.0002,
2.841976,0.0004,-0.0014,0.9975,-0.0073,-0.0212,0.0028,0.0001,-0.0002,0.0002,
2.844758,0.0009,-0.0008,0.9981,-0.0073,-0.0212,0.0028,0.0001,-0.0002,0.0002,
2.861579,0.0010,-0.0011,0.9971,-0.0073,-0.0212,0.0028,0.0001,-0.0002,0.0002,
2.881673,0.0009,-0.0011,0.9976,-0.0073,-0.0212,0.0028,0.0001,-0.0002,0.0002,
2.896126,0.0009,-0.0011,0.9976,-0.0073,-0.0212,0.0028,0.0001,0.0003,0.0002,
2.901426,0.0014,-0.0017,0.9976,-0.0073,-0.0212,0.0028,0.0001,0.0003,0.0002,
2.908361,0.0014,-0.0017,0.9976,-0.0050,-0.0194,0.0031,0.0001,0.0003,0.0002,
2.921576,-0.0001,-0.0011,0.9973,-0.0050,-0.0194,0.0031,0.0001,0.0003,0.0002,
2.941258,0.0011,-0.0011,0.9976,-0.0050,-0.0194,0.0031,0.0001,0.0003,0.0002,
2.962031,0.0016,-0.0011,0.9980,-0.0050,-0.0194,0.0031,0.0001,0.0003,0.0002,
2.963652,0.0016,-0.0011,0.9980,-0.0050,-0.0194,0.0031,0.0004,0.0001,0.0002,
2.971518,0.0016,-0.0011,0.9980,-0.0021,-0.0190,0.0018,0.0004,0.0001,0.0002,
2.985882,0.0007,-0.0012,0.9974,-0.0021,-0.0190,0.0018,0.0004,0.0001,0.0002,
3.001326,-0.0002,-0.0013,0.9970,-0.0021,-0.0190,0.0018,0.0004,0.0001,0.0002,
3.021079,0.0004,-0.0006,0.9971,-0.0021,-0.0190,0.0018,0.0004,0.0001,0.0002,
3.025886,0.0004,-0.0006,0.9971,-0.0021,-0.0190,0.0018,-0.0002,0.0001,0.0001,
3.035039,0.0004,-0.0006,0.9971,-0.0024,-0.0152,0.0033,-0.0002,0.0001,0.0001,
3.042452,0.0009,-0.0011,0.9973,-0.0024,-0.0152,0.0033,-0.0002,0.0001,0.0001,
3.061478,0.0003,-0.0009,0.9971,-0.0024,-0.0152,0.0033,-0.0002,0.0001,0.0001,
3.081073,0.0006,-0.0006,0.9973,-0.0024,-0.0152,0.0033,-0.0002,0.0001,0.0001,
3.092553,0.0006,-0.0006,0.9973,-0.0024,-0.0152,0.0033,0.0004,0.0003,0.0002,
3.101197,0.0010,-0.0008,0.9978,-0.0024,-0.0152,0.0033,0.0004,0.0003,0.0002,
3.103175,0.0010,-0.0008,0.9978,-0.0073,-0.0134,-0.0017,0.0004,0.0003,0.0002,
3.124616,0.0004,-0.0007,0.9978,-0.0073,-0.0134,-0.0017,0.0004,0.0003,0.0002,
3.148151,0.0000,-0.0012,0.9971,-0.0073,-0.0134,-0.0017,0.0004,0.0003,0.0002,
3.158664,0.0000,-0.0012,0.9971,-0.0073,-0.0134,-0.0017,-0.0003,0.0003,0.0004,
3.165443,0.0009,-0.0016,0.9974,-0.0073,-0.0134,-0.0017,-0.0003,0.0003,0.0004,
3.167069,0.0009,-0.0016,0.9974,-0.0034,-0.0090,0.0005,-0.0003,0.0003,0.0004,
3.185100,0.0014,-0.0017,0.9971,-0.0034,-0.0090,0.0005,-0.0003,0.0003,0.0004,
3.205059,0.0004,-0.0017,0.9971,-0.0034,-0.0090,0.0005,-0.0003,0.0003,0.0004,
3.220963,0.0005,-0.0007,0.9973,-0.0034,-0.0090,0.0005,-0.0003,0.0003,0.0004,
3.222612,0.0005,-0.0007,0.9973,-0.0034,-0.0090,0.0005,0.0006,0.0001,0.0002,
3.231962,0.0005,-0.0007,0.9973,-0.0050,-0.0122,0.0011,0.0006,0.0001,0.0002,
3.241858,-0.0002,-0.0005,0.9974,-0.0050,-0.0122,0.0011,0.0006,0.0001,0.0002,
3.261376,0.0006,-0.0014,0.9970,-0.0050,-0.0122,0.0011,0.0006,0.0001,0.0002,
3.281932,0.0011,-0.0012,0.9970,-0.0050,-0.0122,0.0011,0.0006,0.0001,0.0002,
3.284943,0.0011,-0.0012,0.9970,-0.0050,-0.0122,0.0011,-0.0001,-0.0000,0.0004,
3.295472,0.0011,-0.0012,0.9970,-0.0031,-0.0100,-0.0007,-0.0001,-0.0000,0.0004,
3.301098,0.0006,-0.0011,0.9970,-0.0031,-0.0100,-0.0007,-0.0001,-0.0000,0.0004,
3.321664,0.0005,-0.0014,0.9968,-0.0031,-0.0100,-0.0007,-0.0001,-0.0000,0.0004,
3.342349,0.0007,-0.0008,0.9981,-0.0031,-0.0100,-0.0007,-0.0001,-0.0000,0.0004,
3.351677,0.0007,-0.0008,0.9981,-0.0031,-0.0100,-0.0007,0.0003,0.0005,-0.0001,
3.361605,0.0004,-0.0013,0.9979,-0.0031,-0.0100,-0.0007,0.0003,0.0005,-0.0001,
3.364650,0.0004,-0.0013,0.9979,-0.0026,-0.0092,-0.0029,0.0003,0.0005,-0.0001,
3.381732,0.0003,-0.0011,0.9979,-0.0026,-0.0092,-0.0029,0.0003,0.0005,-0.0001,
3.401547,0.0005,-0.0014,0.9971,-0.0026,-0.0092,-0.0029,0.0003,0.0005,-0.0001,
3.415320,0.0005,-0.0014,0.9971,-0.0026,-0.0092,-0.0029,0.0001,-0.0004,0.0002,
3.422410,0.0007,-0.0013,0.9975,-0.0026,-0.0092,-0.0029,0.0001,-0.0004,0.0002,
3.429130,0.0007,-0.0013,0.9975,-0.0029,-0.0085,0.0027,0.0001,-0.0004,0.0002,
3.440680,0.0010,-0.0016,0.9968,-0.0029,-0.0085,0.0027,0.0001,-0.0004,0.0002,
3.461437,0.0001,-0.0008,0.9976,-0.0029,-0.0085,0.0027,0.0001,-0.0004,0.0002,
3.481586,-0.0001,-0.0013,0.9967,-0.0029,-0.0085,0.0027,0.0001,-0.0004,0.0002,
3.483453,-0.0001,-0.0013,0.9967,-0.0029,-0.0085,0.0027,0.0005,0.0003,0.0003,
3.492783,-0.0001,-0.0013,0.9967,-0.0031,-0.0086,0.0011,0.0005,0.0003,0.0003,
3.500353,0.0010,-0.0017,0.9973,-0.0031,-0.0086,0.0011,0.0005,0.0003,0.0003,
3.520124,0.0014,-0.0009,0.9976,-0.0031,-0.0086,0.0011,0.0005,0.0003,0.0003,
3.544981,0.0005,-0.0009,0.9978,-0.0031,-0.0086,0.0011,0.0005,0.0003,0.0003,
3.546724,0.0005,-0.0009,0.9978,-0.0031,-0.0086,0.0011,0.0004,0.0004,0.0002,
3.554843,0.0005,-0.0009,0.9978,-0.0041,-0.0075,-0.0014,0.0004,0.0004,0.0002,
3.561847,0.0005,-0.0014,0.9968,-0.0041,-0.0075,-0.0014,0.0004,0.0004,0.0002,
3.585621,-0.0004,-0.0013,0.9971,-0.0041,-0.0075,-0.0014,0.0004,0.0004,0.0002,
3.602171,0.0007,-0.0008,0.9971,-0.0041,-0.0075,-0.0014,0.0004,0.0004,0.0002,
3.611991,0.0007,-0.0008,0.9971,-0.0041,-0.0075,-0.0014,0.0004,0.0001,-0.0000,
3.621307,0.0009,-0.0013,0.9976,-0.0041,-0.0075,-0.0014,0.0004,0.0001,-0.0000,
3.622859,0.0009,-0.0013,0.9976,0.0017,-0.0061,0.0004,0.0004,0.0001,-0.0000,
3.641119,0.0003,-0.0016,0.9974,0.0017,-0.0061,0.0004,0.0004,0.0001,-0.0000,
3.660794,0.0006,-0.0008,0.9971,0.0017,-0.0061,0.0004,0.0004,0.0001,-0.0000,
3.675873,0.0006,-0.0008,0.9971,0.0017,-0.0061,0.0004,0.0004,0.0001,0.0001,
3.681529,0.0000,-0.0011,0.9970,0.0017,-0.0061,0.0004,0.0004,0.0001,0.0001,
3.685067,0.0000,-0.0011,0.9970,-0.0041,-0.0052,-0.0006,0.0004,0.0001,0.0001,
3.700789,0.0003,-0.0017,0.9979,-0.0041,-0.0052,-0.0006,0.0004,0.0001,0.0001,
3.720219,0.0006,-0.0008,0.9969,-0.0041,-0.0052,-0.0006,0.0004,0.0001,0.0001,
3.741031,0.0010,-0.0014,0.9965,-0.0041,-0.0052,-0.0006,0.0004,0.0001,0.0001,
3.742623,0.0010,-0.0014,0.9965,-0.0041,-0.0052,-0.0006,0.0001,0.0007,0.0002,
3.751066,0.0010,-0.0014,0.9965,-0.0042,-0.0051,-0.0005,0.0001,0.0007,0.0002,
3.761356,0.0010,-0.0014,0.9974,-0.0042,-0.0051,-0.0005,0.0001,0.0007,0.0002,
3.780937,0.0009,-0.0007,0.9964,-0.0042,-0.0051,-0.0005,0.0001,0.0007,0.0002,
3.804335,0.0005,-0.0017,0.9974,-0.0042,-0.0051,-0.0005,0.0001,0.0007,0.0002,
3.807435,0.0005,-0.0017,0.9974,-0.0042,-0.0051,-0.0005,0.0002,-0.0001,0.0002,
3.814335,0.0005,-0.0017,0.9974,0.0003,-0.0062,-0.0018,0.0002,-0.0001,0.0002,
3.822006,0.0004,-0.0009,0.9969,0.0003,-0.0062,-0.0018,0.0002,-0.0001,0.0002,
3.841202,0.0005,-0.0013,0.9969,0.0003,-0.0062,-0.0018,0.0002,-0.0001,0.0002,
3.861221,0.0009,-0.0016,0.9971,0.0003,-0.0062,-0.0018,0.0002,-0.0001,0.0002,
3.870713,0.0009,-0.0016,0.9971,0.0003,-0.0062,-0.0018,0.0002,0.0002,0.0001,
3.881692,0.0001,-0.0008,0.9973,0.0003,-0.0062,-0.0018,0.0002,0.0002,0.0001,
3.883076,0.0001,-0.0008,0.9973,0.0002,-0.0032,-0.0022,0.0002,0.0002,0.0001,
3.900102,0.0009,-0.0011,0.9965,0.0002,-0.0032,-0.0022,0.0002,0.0002,0.0001,
3.924903,0.0003,-0.0016,0.9971,0.0002,-0.0032,-0.0022,0.0002,0.0002,0.0001,
3.935178,0.0003,-0.0016,0.9971,0.0002,-0.0032,-0.0022,0.0004,0.0005,-0.0001,
3.945334,0.0004,-0.0013,0.9976,0.0002,-0.0032,-0.0022,0.0004,0.0005,-0.0001,
3.948076,0.0004,-0.0013,0.9976,-0.0017,-0.0035,-0.0020,0.0004,0.0005,-0.0001,
3.962634,0.0001,-0.0013,0.9968,-0.0017,-0.0035,-0.0020,0.0004,0.0005,-0.0001,
3.980860,0.0011,-0.0013,0.9975,-0.0017,-0.0035,-0.0020,0.0004,0.0005,-0.0001,
4.001231,0.0004,0.0002,0.9974,-0.0017,-0.0035,-0.0020,0.0004,0.0005,-0.0001,
4.004289,0.0004,0.0002,0.9974,-0.0017,-0.0035,-0.0020,0.0004,0.0001,-0.0002,
4.011185,0.0004,0.0002,0.9974,-0.0014,-0.0046,-0.0011,0.0004,0.0001,-0.0002,
4.023372,0.0006,-0.0008,0.9976,-0.0014,-0.0046,-0.0011,0.0004,0.0001,-0.0002,
4.041095,0.0003,-0.0013,0.9971,-0.0014,-0.0046,-0.0011,0.0004,0.0001,-0.0002,
4.061656,0.0009,-0.0007,0.9971,-0.0014,-0.0046,-0.0011,0.0004,0.0001,-0.0002,
4.064999,0.0009,-0.0007,0.9971,-0.0014,-0.0046,-0.0011,-0.0001,0.0001,0.0001,
4.075157,0.0009,-0.0007,0.9971,-0.0007,0.0011,0.0003,-0.0001,0.0001,0.0001,
4.080982,0.0007,-0.0011,0.9974,-0.0007,0.0011,0.0003,-0.0001,0.0001,0.0001,
4.105082,0.0014,-0.0013,0.9973,-0.0007,0.0011,0.0003,-0.0001,0.0001,0.0001,
4.120842,0.0009,-0.0009,0.9975,-0.0007,0.0011,0.0003,-0.0001,0.0001,0.0001,
4.131209,0.0009,-0.0009,0.9975,-0.0007,0.0011,0.0003,0.0002,0.0000,0.0001,
4.141793,0.0006,-0.0008,0.9968,-0.0007,0.0011,0.0003,0.0002,0.0000,0.0001,
4.145302,0.0006,-0.0008,0.9968,0.0000,-0.0015,0.0013,0.0002,0.0000,0.0001,
4.164599,0.0003,-0.0011,0.9973,0.0000,-0.0015,0.0013,0.0002,0.0000,0.0001,
4.185524,0.0006,-0.0009,0.9971,0.0000,-0.0015,0.0013,0.0002,0.0000,0.0001,
4.196586,0.0006,-0.0009,0.9971,0.0000,-0.0015,0.0013,0.0001,0.0005,0.0002,
4.208169,0.0006,-0.0013,0.9973,0.0000,-0.0015,0.0013,0.0001,0.0005,0.0002,
4.211498,0.0006,-0.0013,0.9973,0.0026,-0.0011,-0.0005,0.0001,0.0005,0.0002,
4.223941,0.0010,-0.0012,0.9978,0.0026,-0.0011,-0.0005,0.0001,0.0005,0.0002,
4.240696,0.0005,-0.0007,0.9969,0.0026,-0.0011,-0.0005,0.0001,0.0005,0.0002,
4.260190,0.0000,-0.0016,0.9973,0.0026,-0.0011,-0.0005,0.0001,0.0005,0.0002,
4.261514,0.0000,-0.0016,0.9973,0.0026,-0.0011,-0.0005,0.0001,0.0002,-0.0001,
4.270632,0.0000,-0.0016,0.9973,-0.0009,-0.0022,0.0005,0.0001,0.0002,-0.0001,
4.281115,0.0011,-0.0009,0.9973,-0.0009,-0.0022,0.0005,0.0001,0.0002,-0.0001,
4.304696,0.0010,-0.0005,0.9973,-0.0009,-0.0022,0.0005,0.0001,0.0002,-0.0001,
4.320714,0.0007,-0.0014,0.9971,-0.0009,-0.0022,0.0005,0.0001,0.0002,-0.0001,
4.324559,0.0007,-0.0014,0.9971,-0.0009,-0.0022,0.0005,-0.0001,0.0001,0.0005,
4.334695,0.0007,-0.0014,0.9971,-0.0015,-0.0020,0.0005,-0.0001,0.0001,0.0005,
4.339933,0.0010,-0.0011,0.9974,-0.0015,-0.0020,0.0005,-0.0001,0.0001,0.0005,
4.361196,0.0003,-0.0016,0.9976,-0.0015,-0.0020,0.0005,-0.0001,0.0001,0.0005,
4.384885,0.0001,-0.0013,0.9976,-0.0015,-0.0020,0.0005,-0.0001,0.0001,0.0005,
4.390664,0.0001,-0.0013,0.9976,-0.0015,-0.0020,0.0005,0.0002,0.0007,0.0002,
4.401303,0.0007,-0.0013,0.9971,-0.0015,-0.0020,0.0005,0.0002,0.0007,0.0002,
4.403854,0.0007,-0.0013,0.9971,0.0037,-0.0003,-0.0006,0.0002,0.0007,0.0002,
4.425630,0.0012,-0.0008,0.9970,0.0037,-0.0003,-0.0006,0.0002,0.0007,0.0002,
4.441401,0.0007,-0.0012,0.9967,0.0037,-0.0003,-0.0006,0.0002,0.0007,0.0002,
4.454653,0.0007,-0.0012,0.9967,0.0037,-0.0003,-0.0006,0.0002,0.0005,-0.0001,
4.461697,0.0001,-0.0011,0.9976,0.0037,-0.0003,-0.0006,0.0002,0.0005,-0.0001,
4.464922,0.0001,-0.0011,0.9976,-0.0024,-0.0026,0.0024,0.0002,0.0005,-0.0001,
4.480964,0.0003,-0.0009,0.9974,-0.0024,-0.0026,0.0024,0.0002,0.0005,-0.0001,
4.505015,0.0004,-0.0009,0.9975,-0.0024,-0.0026,0.0024,0.0002,0.0005,-0.0001,
4.524467,0.0004,-0.0009,0.9975,-0.0024,-0.0026,0.0024,0.0004,0.0003,0.0002,
4.527068,0.0014,-0.0008,0.9969,-0.0024,-0.0026,0.0024,0.0004,0.0003,0.0002,
4.530708,0.0014,-0.0008,0.9969,0.0006,-0.0001,-0.0014,0.0004,0.0003,0.0002,
4.542967,0.0009,-0.0012,0.9962,0.0006,-0.0001,-0.0014,0.0004,0.0003,0.0002,
4.561300,0.0004,-0.0017,0.9947,0.0006,-0.0001,-0.0014,0.0004,0.0003,0.0002,
4.580563,0.0006,0.0017,0.9803,0.0006,-0.0001,-0.0014,0.0004,0.0003,0.0002,
4.584586,0.0006,0.0017,0.9803,0.0006,-0.0001,-0.0014,0.0020,0.0012,0.0002,
4.594848,0.0006,0.0017,0.9803,0.0012,-0.0002,-0.0013,0.0020,0.0012,0.0002,
4.600941,-0.0017,-0.0064,1.0327,0.0012,-0.0002,-0.0013,0.0020,0.0012,0.0002,
4.624754,0.0036,0.0024,0.9736,0.0012,-0.0002,-0.0013,0.0020,0.0012,0.0002,
4.641126,-0.0007,-0.0002,1.0147,0.0012,-0.0002,-0.0013,0.0020,0.0012,0.0002,
4.651123,-0.0007,-0.0002,1.0147,0.0012,-0.0002,-0.0013,-0.0004,-0.0003,-0.0000,
4.661073,0.0005,-0.0030,0.9824,0.0012,-0.0002,-0.0013,-0.0004,-0.0003,-0.0000,
4.663891,0.0005,-0.0030,0.9824,-0.0060,-0.0074,0.0467,-0.0004,-0.0003,-0.0000,
4.681492,-0.0017,0.0009,1.0072,-0.0060,-0.0074,0.0467,-0.0004,-0.0003,-0.0000,
4.700385,0.0036,-0.0023,0.9943,-0.0060,-0.0074,0.0467,-0.0004,-0.0003,-0.0000,
4.714622,0.0036,-0.0023,0.9943,-0.0060,-0.0074,0.0467,0.0004,0.0007,0.0004,
4.723953,-0.0005,0.0000,0.9971,-0.0060,-0.0074,0.0467,0.0004,0.0007,0.0004,
4.727744,-0.0005,0.0000,0.9971,0.0048,0.0031,-0.0666,0.0004,0.0007,0.0004,
4.741666,-0.0010,-0.0034,0.9980,0.0048,0.0031,-0.0666,0.0004,0.0007,0.0004,
4.760762,0.0011,0.0020,0.9976,0.0048,0.0031,-0.0666,0.0004,0.0007,0.0004,
4.781207,0.0023,-0.0046,0.9967,0.0048,0.0031,-0.0666,0.0004,0.0007,0.0004,
4.783504,0.0023,-0.0046,0.9967,0.0048,0.0031,-0.0666,0.0001,0.0004,0.0003,
4.789882,0.0023,-0.0046,0.9967,-0.0017,0.0018,0.0256,0.0001,0.0004,0.0003,
4.799894,0.0007,0.0032,0.9974,-0.0017,0.0018,0.0256,0.0001,0.0004,0.0003,
4.824717,-0.0010,-0.0029,0.9964,-0.0017,0.0018,0.0256,0.0001,0.0004,0.0003,
4.840317,0.0012,-0.0014,0.9974,-0.0017,0.0018,0.0256,0.0001,0.0004,0.0003,
4.844511,0.0012,-0.0014,0.9974,-0.0017,0.0018,0.0256,0.0004,0.0005,0.0002,
4.857306,0.0012,-0.0014,0.9974,0.0061,-0.0028,-0.0054,0.0004,0.0005,0.0002,
4.861036,0.0009,-0.0001,0.9959,0.0061,-0.0028,-0.0054,0.0004,0.0005,0.0002,
4.880317,0.0004,-0.0016,0.9980,0.0061,-0.0028,-0.0054,0.0004,0.0005,0.0002,
4.899993,0.0009,-0.0007,0.9967,0.0061,-0.0028,-0.0054,0.0004,0.0005,0.0002,
4.910335,0.0009,-0.0007,0.9967,0.0061,-0.0028,-0.0054,0.0001,0.0002,-0.0001,
4.920388,-0.0001,-0.0013,0.9976,0.0061,-0.0028,-0.0054,0.0001,0.0002,-0.0001,
4.921930,-0.0001,-0.0013,0.9976,-0.0026,0.0043,-0.0031,0.0001,0.0002,-0.0001,
4.940659,0.0018,-0.0008,0.9973,-0.0026,0.0043,-0.0031,0.0001,0.0002,-0.0001,
4.961091,0.0011,-0.0013,0.9967,-0.0026,0.0043,-0.0031,0.0001,0.0002,-0.0001,
4.974606,0.0011,-0.0013,0.9967,-0.0026,0.0043,-0.0031,0.0002,0.0001,-0.0000,
4.980779,0.0001,-0.0005,0.9975,-0.0026,0.0043,-0.0031,0.0002,0.0001,-0.0000,
4.985249,0.0001,-0.0005,0.9975,-0.0015,-0.0039,0.0018,0.0002,0.0001,-0.0000,
5.000025,0.0007,-0.0014,0.9960,-0.0015,-0.0039,0.0018,0.0002,0.0001,-0.0000,
5.020290,0.0015,-0.0005,0.9974,-0.0015,-0.0039,0.0018,0.0002,0.0001,-0.0000,
5.040444,0.0004,-0.0016,0.9968,-0.0015,-0.0039,0.0018,0.0002,0.0001,-0.0000,
5.042749,0.0004,-0.0016,0.9968,-0.0015,-0.0039,0.0018,0.0006,0.0004,0.0002,
5.050792,0.0004,-0.0016,0.9968,0.0038,-0.0005,-0.0017,0.0006,0.0004,0.0002,
5.064840,-0.0010,-0.0016,0.9970,0.0038,-0.0005,-0.0017,0.0006,0.0004,0.0002,
5.080440,0.0014,-0.0008,0.9970,0.0038,-0.0005,-0.0017,0.0006,0.0004,0.0002,
5.100784,0.0016,-0.0008,0.9971,0.0038,-0.0005,-0.0017,0.0006,0.0004,0.0002,
5.107931,0.0016,-0.0008,0.9971,0.0038,-0.0005,-0.0017,0.0006,0.0005,-0.0001,
5.113712,0.0016,-0.0008,0.9971,0.0012,-0.0022,-0.0031,0.0006,0.0005,-0.0001,
5.122760,0.0007,-0.0008,0.9974,0.0012,-0.0022,-0.0031,0.0006,0.0005,-0.0001,
5.140556,0.0003,-0.0012,0.9965,0.0012,-0.0022,-0.0031,0.0006,0.0005,-0.0001,
5.161043,0.0012,-0.0007,0.9971,0.0012,-0.0022,-0.0031,0.0006,0.0005,-0.0001,
5.170409,0.0012,-0.0007,0.9971,0.0012,-0.0022,-0.0031,0.0002,0.0000,0.0002,
5.180738,0.0010,-0.0006,0.9964,0.0012,-0.0022,-0.0031,0.0002,0.0000,0.0002,
5.183882,0.0010,-0.0006,0.9964,0.0032,-0.0006,0.0005,0.0002,0.0000,0.0002,
5.200594,0.0010,-0.0018,0.9971,0.0032,-0.0006,0.0005,0.0002,0.0000,0.0002,
5.220350,-0.0002,-0.0009,0.9969,0.0032,-0.0006,0.0005,0.0002,0.0000,0.0002,
5.234663,-0.0002,-0.0009,0.9969,0.0032,-0.0006,0.0005,0.0001,0.0002,0.0002,
5.241606,0.0004,-0.0014,0.9969,0.0032,-0.0006,0.0005,0.0001,0.0002,0.0002,
5.244860,0.0004,-0.0014,0.9969,0.0024,0.0011,-0.0038,0.0001,0.0002,0.0002,
5.260954,0.0009,-0.0019,0.9965,0.0024,0.0011,-0.0038,0.0001,0.0002,0.0002,
5.280797,0.0006,-0.0006,0.9973,0.0024,0.0011,-0.0038,0.0001,0.0002,0.0002,
5.299911,0.0005,-0.0008,0.9965,0.0024,0.0011,-0.0038,0.0001,0.0002,0.0002,
5.301485,0.0005,-0.0008,0.9965,0.0024,0.0011,-0.0038,0.0001,0.0003,-0.0001,
5.310485,0.0005,-0.0008,0.9965,-0.0016,-0.0046,-0.0018,0.0001,0.0003,-0.0001,
5.324819,0.0004,-0.0011,0.9974,-0.0016,-0.0046,-0.0018,0.0001,0.0003,-0.0001,
5.340855,0.0011,-0.0008,0.9967,-0.0016,-0.0046,-0.0018,0.0001,0.0003,-0.0001,
5.360732,0.0015,-0.0007,0.9969,-0.0016,-0.0046,-0.0018,0.0001,0.0003,-0.0001,
5.364002,0.0015,-0.0007,0.9969,-0.0016,-0.0046,-0.0018,0.0004,0.0004,0.0002,
5.374675,0.0015,-0.0007,0.9969,0.0001,-0.0008,-0.0012,0.0004,0.0004,0.0002,
5.384017,0.0005,-0.0009,0.9971,0.0001,-0.0008,-0.0012,0.0004,0.0004,0.0002,
5.399860,0.0011,-0.0013,0.9968,0.0001,-0.0008,-0.0012,0.0004,0.0004,0.0002,
5.419785,0.0011,-0.0014,0.9960,0.0001,-0.0008,-0.0012,0.0004,0.0004,0.0002,
5.429791,0.0011,-0.0014,0.9960,0.0001,-0.0008,-0.0012,0.0002,-0.0000,0.0004,
5.439075,0.0004,0.0000,0.9991,0.0001,-0.0008,-0.0012,0.0002,-0.0000,0.0004,
5.440323,0.0004,0.0000,0.9991,0.0034,0.0010,-0.0008,0.0002,-0.0000,0.0004,
5.459707,0.0007,-0.0007,0.9943,0.0034,0.0010,-0.0008,0.0002,-0.0000,0.0004,
5.479829,0.0004,-0.0016,0.9993,0.0034,0.0010,-0.0008,0.0002,-0.0000,0.0004,
5.493757,0.0004,-0.0016,0.9993,0.0034,0.0010,-0.0008,-0.0001,0.0002,-0.0001,
5.499316,0.0005,-0.0006,0.9964,0.0034,0.0010,-0.0008,-0.0001,0.0002,-0.0001,
5.506115,0.0005,-0.0006,0.9964,0.0015,0.0002,0.0016,-0.0001,0.0002,-0.0001,
5.522901,0.0001,-0.0007,0.9969,0.0015,0.0002,0.0016,-0.0001,0.0002,-0.0001,
5.544077,0.0010,-0.0022,0.9963,0.0015,0.0002,0.0016,-0.0001,0.0002,-0.0001,
5.560424,0.0007,-0.0011,0.9965,0.0015,0.0002,0.0016,-0.0001,0.0002,-0.0001,
5.562660,0.0007,-0.0011,0.9965,0.0015,0.0002,0.0016,0.0003,0.0002,0.0003,
5.570200,0.0007,-0.0011,0.9965,-0.0015,0.0004,-0.0045,0.0003,0.0002,0.0003,
5.580672,0.0007,-0.0013,0.9969,-0.0015,0.0004,-0.0045,0.0003,0.0002,0.0003,
5.600098,0.0039,-0.0022,0.9949,-0.0015,0.0004,-0.0045,0.0003,0.0002,0.0003,
5.620264,0.0212,-0.0100,0.9995,-0.0015,0.0004,-0.0045,0.0003,0.0002,0.0003,
5.623863,0.0212,-0.0100,0.9995,-0.0015,0.0004,-0.0045,-0.0010,-0.0001,-0.0244,
5.634303,0.0212,-0.0100,0.9995,0.0010,-0.0042,-0.0017,-0.0010,-0.0001,-0.0244,
5.640678,-0.0067,0.0024,0.9974,0.0010,-0.0042,-0.0017,-0.0010,-0.0001,-0.0244,
5.660932,-0.0175,0.0069,0.9965,0.0010,-0.0042,-0.0017,-0.0010,-0.0001,-0.0244,
5.681429,0.0016,-0.0019,0.9967,0.0010,-0.0042,-0.0017,-0.0010,-0.0001,-0.0244,
5.690421,0.0016,-0.0019,0.9967,0.0010,-0.0042,-0.0017,0.0010,0.0006,-0.0252,
5.699682,0.0001,-0.0012,0.9973,0.0010,-0.0042,-0.0017,0.0010,0.0006,-0.0252,
5.701735,0.0001,-0.0012,0.9973,0.0724,-0.0303,0.0015,0.0010,0.0006,-0.0252,
5.720261,-0.0133,0.0044,0.9962,0.0724,-0.0303,0.0015,0.0010,0.0006,-0.0252,
5.739747,-0.0224,0.0090,0.9993,0.0724,-0.0303,0.0015,0.0010,0.0006,-0.0252,
5.756626,-0.0224,0.0090,0.9993,0.0724,-0.0303,0.0015,-0.0010,0.0000,0.0525,
5.761679,0.0386,-0.0177,0.9967,0.0724,-0.0303,0.0015,-0.0010,0.0000,0.0525,
5.764129,0.0386,-0.0177,0.9967,-0.0837,0.0335,-0.0020,-0.0010,0.0000,0.0525,
5.780761,0.0009,-0.0016,0.9962,-0.0837,0.0335,-0.0020,-0.0010,0.0000,0.0525,
5.804881,0.0007,-0.0007,0.9964,-0.0837,0.0335,-0.0020,-0.0010,0.0000,0.0525,
5.823151,0.0007,-0.0007,0.9964,-0.0837,0.0335,-0.0020,0.0008,0.0006,-0.0008,
5.825620,0.0006,-0.0001,0.9957,-0.0837,0.0335,-0.0020,0.0008,0.0006,-0.0008,
5.829979,0.0006,-0.0001,0.9957,0.0040,-0.0040,0.0018,0.0008,0.0006,-0.0008,
5.841190,0.0003,-0.0005,0.9991,0.0040,-0.0040,0.0018,0.0008,0.0006,-0.0008,
5.860744,-0.0121,0.0042,0.9982,0.0040,-0.0040,0.0018,0.0008,0.0006,-0.0008,
5.880758,-0.0882,0.0340,0.9987,0.0040,-0.0040,0.0018,0.0008,0.0006,-0.0008,
5.883609,-0.0882,0.0340,0.9987,0.0040,-0.0040,0.0018,0.0026,0.0036,0.0941,
5.894822,-0.0882,0.0340,0.9987,0.0012,0.0032,-0.0033,0.0026,0.0036,0.0941,
5.899556,-0.0002,-0.0074,0.9982,0.0012,0.0032,-0.0033,0.0026,0.0036,0.0941,
5.924338,0.0531,-0.0222,1.0061,0.0012,0.0032,-0.0033,0.0026,0.0036,0.0941,
5.940513,0.0104,-0.0066,1.0101,0.0012,0.0032,-0.0033,0.0026,0.0036,0.0941,
5.950691,0.0104,-0.0066,1.0101,0.0012,0.0032,-0.0033,0.0431,0.0104,0.2284,
5.961110,0.0045,-0.0002,0.9945,0.0012,0.0032,-0.0033,0.0431,0.0104,0.2284,
5.963390,0.0045,-0.0002,0.9945,-0.3043,0.1049,0.0148,0.0431,0.0104,0.2284,
5.984014,0.0001,0.0015,0.9976,-0.3043,0.1049,0.0148,0.0431,0.0104,0.2284,
6.000487,0.0011,0.0020,1.0255,-0.3043,0.1049,0.0148,0.0431,0.0104,0.2284,
6.014388,0.0011,0.0020,1.0255,-0.3043,0.1049,0.0148,0.0761,-0.0197,0.0703,
6.022239,-0.0275,0.0036,1.0602,-0.3043,0.1049,0.0148,0.0761,-0.0197,0.0703,
6.026063,-0.0275,0.0036,1.0602,0.2506,-0.1315,0.0506,0.0761,-0.0197,0.0703,
6.040550,0.0043,-0.0283,1.0495,0.2506,-0.1315,0.0506,0.0761,-0.0197,0.0703,
6.064115,0.0430,-0.0292,0.9738,0.2506,-0.1315,0.0506,0.0761,-0.0197,0.0703,
6.080454,0.0471,0.0400,1.0011,0.2506,-0.1315,0.0506,0.0761,-0.0197,0.0703,
6.083132,0.0471,0.0400,1.0011,0.2506,-0.1315,0.0506,0.2397,-0.0226,0.0532,
6.090258,0.0471,0.0400,1.0011,-0.0970,-0.0701,0.3015,0.2397,-0.0226,0.0532,
6.105952,0.0246,0.0698,1.1065,-0.0970,-0.0701,0.3015,0.2397,-0.0226,0.0532,
6.121561,0.0022,0.0288,1.1791,-0.0970,-0.0701,0.3015,0.2397,-0.0226,0.0532,
6.140413,0.0051,0.0698,1.0796,-0.0970,-0.0701,0.3015,0.2397,-0.0226,0.0532,
6.143776,0.0051,0.0698,1.0796,-0.0970,-0.0701,0.3015,0.5919,0.0208,-0.0856,
6.155075,0.0051,0.0698,1.0796,0.3230,-0.1658,0.0920,0.5919,0.0208,-0.0856,
6.160226,-0.0129,0.0837,0.9595,0.3230,-0.1658,0.0920,0.5919,0.0208,-0.0856,
6.179844,0.0190,0.0267,0.8604,0.3230,-0.1658,0.0920,0.5919,0.0208,-0.0856,
6.204791,0.0092,0.0853,0.7741,0.3230,-0.1658,0.0920,0.5919,0.0208,-0.0856,
6.210130,0.0092,0.0853,0.7741,0.3230,-0.1658,0.0920,0.5416,0.0037,-0.0915,
6.221937,-0.0115,0.1032,0.7768,0.3230,-0.1658,0.0920,0.5416,0.0037,-0.0915,
6.224010,-0.0115,0.1032,0.7768,-0.0328,-0.0753,0.8140,0.5416,0.0037,-0.0915,
6.240886,0.0009,0.0748,0.8047,-0.0328,-0.0753,0.8140,0.5416,0.0037,-0.0915,
6.261144,0.0348,0.0507,0.8438,-0.0328,-0.0753,0.8140,0.5416,0.0037,-0.0915,
6.278181,0.0348,0.0507,0.8438,-0.0328,-0.0753,0.8140,-0.4412,-0.0241,-0.1045,
6.280778,0.0058,0.0572,0.9109,-0.0328,-0.0753,0.8140,-0.4412,-0.0241,-0.1045,
6.283631,0.0058,0.0572,0.9109,0.0313,-0.1899,-1.8801,-0.4412,-0.0241,-0.1045,
6.299583,-0.0290,0.0275,0.9629,0.0313,-0.1899,-1.8801,-0.4412,-0.0241,-0.1045,
6.318642,-0.0298,0.0263,0.9788,0.0313,-0.1899,-1.8801,-0.4412,-0.0241,-0.1045,
6.339344,0.0372,-0.0570,0.9841,0.0313,-0.1899,-1.8801,-0.4412,-0.0241,-0.1045,
6.341336,0.0372,-0.0570,0.9841,0.0313,-0.1899,-1.8801,-0.9007,0.0077,-0.0701,
6.349472,0.0372,-0.0570,0.9841,0.0689,0.0791,-1.4268,-0.9007,0.0077,-0.0701,
6.359038,-0.0862,0.1592,1.5647,0.0689,0.0791,-1.4268,-0.9007,0.0077,-0.0701,
6.379018,0.0197,-0.0105,0.9848,0.0689,0.0791,-1.4268,-0.9007,0.0077,-0.0701,
6.403687,-0.0027,0.0011,1.0107,0.0689,0.0791,-1.4268,-0.9007,0.0077,-0.0701,
6.405344,-0.0027,0.0011,1.0107,0.0689,0.0791,-1.4268,-0.1445,-0.0127,0.0150,
6.413328,-0.0027,0.0011,1.0107,-0.1410,-0.0165,1.3089,-0.1445,-0.0127,0.0150,
6.418432,0.0075,-0.0041,1.0053,-0.1410,-0.0165,1.3089,-0.1445,-0.0127,0.0150,
6.438926,0.0119,-0.0069,1.0063,-0.1410,-0.0165,1.3089,-0.1445,-0.0127,0.0150,
6.463593,0.0006,-0.0019,1.0194,-0.1410,-0.0165,1.3089,-0.1445,-0.0127,0.0150,
6.471443,0.0006,-0.0019,1.0194,-0.1410,-0.0165,1.3089,0.0247,-0.0408,-0.0262,
6.479938,0.0265,-0.0130,1.0413,-0.1410,-0.0165,1.3089,0.0247,-0.0408,-0.0262,
6.481909,0.0265,-0.0130,1.0413,-0.1380,0.5021,0.0210,0.0247,-0.0408,-0.0262,
6.504668,-0.0096,-0.1388,1.0139,-0.1380,0.5021,0.0210,0.0247,-0.0408,-0.0262,
6.522028,0.0004,-0.0284,1.0889,-0.1380,0.5021,0.0210,0.0247,-0.0408,-0.0262,
6.533950,0.0004,-0.0284,1.0889,-0.1380,0.5021,0.0210,0.2486,0.0112,0.0832,
6.540159,0.0099,0.1488,1.1723,-0.1380,0.5021,0.0210,0.2486,0.0112,0.0832,
6.544521,0.0099,0.1488,1.1723,0.0608,-0.0658,0.1077,0.2486,0.0112,0.0832,
6.563093,-0.0134,0.0677,1.2149,0.0608,-0.0658,0.1077,0.2486,0.0112,0.0832,
6.583285,0.0391,0.0631,0.9858,0.0608,-0.0658,0.1077,0.2486,0.0112,0.0832,
6.599938,0.0391,0.0631,0.9858,0.0608,-0.0658,0.1077,0.8459,-0.0050,-0.0233,
6.601724,-0.0193,0.0281,0.8975,0.0608,-0.0658,0.1077,0.8459,-0.0050,-0.0233,
6.609256,-0.0193,0.0281,0.8975,-0.0747,-0.1138,0.9430,0.8459,-0.0050,-0.0233,
6.622321,0.0084,0.0721,0.8585,-0.0747,-0.1138,0.9430,0.8459,-0.0050,-0.0233,
6.640022,0.0114,0.0889,0.8808,-0.0747,-0.1138,0.9430,0.8459,-0.0050,-0.0233,
6.660309,0.0083,0.1026,0.7834,-0.0747,-0.1138,0.9430,0.8459,-0.0050,-0.0233,
6.663725,0.0083,0.1026,0.7834,-0.0747,-0.1138,0.9430,0.4036,0.0327,-0.0428,
6.673645,0.0083,0.1026,0.7834,0.0178,-0.3612,-0.2453,0.4036,0.0327,-0.0428,
6.684237,0.0135,0.0879,0.6775,0.0178,-0.3612,-0.2453,0.4036,0.0327,-0.0428,
6.703323,0.0010,0.0318,0.6026,0.0178,-0.3612,-0.2453,0.4036,0.0327,-0.0428,
6.721290,0.0153,-0.0001,0.6987,0.0178,-0.3612,-0.2453,0.4036,0.0327,-0.0428,
6.729884,0.0153,-0.0001,0.6987,0.0178,-0.3612,-0.2453,-0.9914,0.0046,-0.0453,
6.739595,0.0584,0.0186,0.7376,0.0178,-0.3612,-0.2453,-0.9914,0.0046,-0.0453,
6.742617,0.0584,0.0186,0.7376,0.0931,0.0203,-1.9463,-0.9914,0.0046,-0.0453,
6.763634,-0.1555,0.0983,2.2845,0.0931,0.0203,-1.9463,-0.9914,0.0046,-0.0453,
6.779634,0.0330,-0.0314,1.0205,0.0931,0.0203,-1.9463,-0.9914,0.0046,-0.0453,
6.793163,0.0330,-0.0314,1.0205,0.0931,0.0203,-1.9463,-0.5508,-0.0169,0.0010,
6.799613,0.0033,-0.0034,0.9984,0.0931,0.0203,-1.9463,-0.5508,-0.0169,0.0010,
6.804175,0.0033,-0.0034,0.9984,0.1942,0.2181,-3.1785,-0.5508,-0.0169,0.0010,
6.820060,0.0033,-0.0024,1.0002,0.1942,0.2181,-3.1785,-0.5508,-0.0169,0.0010,
6.842043,0.0031,-0.0018,0.9986,0.1942,0.2181,-3.1785,-0.5508,-0.0169,0.0010,
6.860234,0.0018,-0.0030,0.9982,0.1942,0.2181,-3.1785,-0.5508,-0.0169,0.0010,
6.862263,0.0018,-0.0030,0.9982,0.1942,0.2181,-3.1785,0.0018,-0.0054,0.0006,
6.870304,0.0018,-0.0030,0.9982,-0.3905,0.2452,3.8486,0.0018,-0.0054,0.0006,
6.883077,0.0017,-0.0020,0.9967,-0.3905,0.2452,3.8486,0.0018,-0.0054,0.0006,
6.903342,-0.0012,-0.0003,0.9987,-0.3905,0.2452,3.8486,0.0018,-0.0054,0.0006,
6.920578,-0.0115,0.0065,0.9992,-0.3905,0.2452,3.8486,0.0018,-0.0054,0.0006,
6.922904,-0.0115,0.0065,0.9992,-0.3905,0.2452,3.8486,0.0095,-0.0031,0.0189,
6.933965,-0.0115,0.0065,0.9992,-0.0103,0.0289,-0.1037,0.0095,-0.0031,0.0189,
6.939291,-0.0028,0.0016,1.0113,-0.0103,0.0289,-0.1037,0.0095,-0.0031,0.0189,
6.959553,-0.0070,0.0071,1.0149,-0.0103,0.0289,-0.1037,0.0095,-0.0031,0.0189,
6.980057,0.0231,-0.0173,1.0146,-0.0103,0.0289,-0.1037,0.0095,-0.0031,0.0189,
6.990229,0.0231,-0.0173,1.0146,-0.0103,0.0289,-0.1037,0.0587,-0.0809,0.0804,
7.000672,0.0231,-0.0173,1.0146,-0.0828,0.0618,-0.0697,0.0587,-0.0809,0.0804,
7.004692,0.0048,0.0025,0.9943,-0.0828,0.0618,-0.0697,0.0587,-0.0809,0.0804,
7.024024,0.0320,-0.0658,1.0044,-0.0828,0.0618,-0.0697,0.0587,-0.0809,0.0804,
7.039828,-0.0060,0.0153,1.2155,-0.0828,0.0618,-0.0697,0.0587,-0.0809,0.0804,
7.054672,-0.0060,0.0153,1.2155,-0.0828,0.0618,-0.0697,0.2775,0.0199,0.0360,
7.063939,-0.0364,0.0603,1.3049,-0.0828,0.0618,-0.0697,0.2775,0.0199,0.0360,
7.066101,-0.0364,0.0603,1.3049,-0.0202,-0.0297,0.0001,0.2775,0.0199,0.0360,
7.079772,0.0038,0.0233,1.0666,-0.0202,-0.0297,0.0001,0.2775,0.0199,0.0360,
7.103348,0.0737,0.0230,0.8642,-0.0202,-0.0297,0.0001,0.2775,0.0199,0.0360,
7.120878,0.0737,0.0230,0.8642,-0.0202,-0.0297,0.0001,0.7024,-0.4432,0.0030,
7.123401,0.0755,0.0466,0.7244,-0.0202,-0.0297,0.0001,0.7024,-0.4432,0.0030,
7.130084,0.0755,0.0466,0.7244,-0.2497,-0.2118,1.6007,0.7024,-0.4432,0.0030,
7.144415,0.0199,0.0749,0.6243,-0.2497,-0.2118,1.6007,0.7024,-0.4432,0.0030,
7.159686,-0.0530,0.0811,0.8847,-0.2497,-0.2118,1.6007,0.7024,-0.4432,0.0030,
7.180460,-0.0226,0.0916,0.7609,-0.2497,-0.2118,1.6007,0.7024,-0.4432,0.0030,
7.184024,-0.0226,0.0916,0.7609,-0.2497,-0.2118,1.6007,-0.1340,0.5467,0.0325,
7.193433,-0.0226,0.0916,0.7609,0.2953,-0.3081,-1.7584,-0.1340,0.5467,0.0325,
7.199784,0.0312,0.0421,0.9494,0.2953,-0.3081,-1.7584,-0.1340,0.5467,0.0325,
7.223273,0.0531,0.0218,0.9633,0.2953,-0.3081,-1.7584,-0.1340,0.5467,0.0325,
7.238944,0.0216,-0.0137,0.9434,0.2953,-0.3081,-1.7584,-0.1340,0.5467,0.0325,
7.248836,0.0216,-0.0137,0.9434,0.2953,-0.3081,-1.7584,-0.8919,0.0074,-0.0249,
7.259520,-0.0915,0.0297,1.6129,0.2953,-0.3081,-1.7584,-0.8919,0.0074,-0.0249,
7.261246,-0.0915,0.0297,1.6129,-0.1503,0.3014,-1.7509,-0.8919,0.0074,-0.0249,
7.279208,0.0275,-0.0093,0.9948,-0.1503,0.3014,-1.7509,-0.8919,0.0074,-0.0249,
7.303132,0.0003,-0.0016,1.0003,-0.1503,0.3014,-1.7509,-0.8919,0.0074,-0.0249,
7.314164,0.0003,-0.0016,1.0003,-0.1503,0.3014,-1.7509,-0.0151,-0.0376,0.0176,
7.323841,0.0003,-0.0016,1.0003,-0.0393,0.1918,1.3889,-0.0151,-0.0376,0.0176,
7.327139,0.0016,-0.0013,0.9991,-0.0393,0.1918,1.3889,-0.0151,-0.0376,0.0176,
7.344110,0.0029,-0.0019,0.9981,-0.0393,0.1918,1.3889,-0.0151,-0.0376,0.0176,
7.359176,0.0027,-0.0028,1.0011,-0.0393,0.1918,1.3889,-0.0151,-0.0376,0.0176,
7.381086,0.0009,0.0000,0.9958,-0.0393,0.1918,1.3889,-0.0151,-0.0376,0.0176,
7.383424,0.0009,0.0000,0.9958,-0.0393,0.1918,1.3889,0.0027,-0.0010,0.0011,
7.389864,0.0009,0.0000,0.9958,0.0596,0.0103,-0.0913,0.0027,-0.0010,0.0011,
7.399645,0.0022,-0.0011,0.9985,0.0596,0.0103,-0.0913,0.0027,-0.0010,0.0011,
7.424729,0.0022,-0.0017,0.9986,0.0596,0.0103,-0.0913,0.0027,-0.0010,0.0011,
7.440133,0.0003,-0.0006,0.9986,0.0596,0.0103,-0.0913,0.0027,-0.0010,0.0011,
7.443460,0.0003,-0.0006,0.9986,0.0596,0.0103,-0.0913,0.0069,0.0173,0.0009,
7.454613,0.0003,-0.0006,0.9986,-0.0059,0.0290,-0.0848,0.0069,0.0173,0.0009,
7.463655,0.0005,-0.0017,0.9992,-0.0059,0.0290,-0.0848,0.0069,0.0173,0.0009,
7.478961,0.0004,-0.0008,0.9986,-0.0059,0.0290,-0.0848,0.0069,0.0173,0.0009,
7.498420,0.0011,-0.0016,0.9985,-0.0059,0.0290,-0.0848,0.0069,0.0173,0.0009,
7.508940,0.0011,-0.0016,0.9985,-0.0059,0.0290,-0.0848,0.0010,0.0014,0.0001,
7.520744,0.0014,-0.0011,0.9991,-0.0059,0.0290,-0.0848,0.0010,0.0014,0.0001,
7.522583,0.0014,-0.0011,0.9991,-0.0073,0.0288,-0.0852,0.0010,0.0014,0.0001,
7.543604,0.0005,-0.0001,0.9986,-0.0073,0.0288,-0.0852,0.0010,0.0014,0.0001,
7.563494,0.0009,-0.0011,0.9992,-0.0073,0.0288,-0.0852,0.0010,0.0014,0.0001,
7.575037,0.0009,-0.0011,0.9992,-0.0073,0.0288,-0.0852,0.0001,0.0007,0.0004,
7.583788,0.0014,-0.0013,0.9986,-0.0073,0.0288,-0.0852,0.0001,0.0007,0.0004,
7.585736,0.0014,-0.0013,0.9986,-0.0100,0.0290,-0.0794,0.0001,0.0007,0.0004,
7.599551,0.0009,-0.0008,0.9996,-0.0100,0.0290,-0.0794,0.0001,0.0007,0.0004,
7.618817,0.0010,-0.0013,0.9980,-0.0100,0.0290,-0.0794,0.0001,0.0007,0.0004,
7.639098,0.0000,-0.0008,0.9991,-0.0100,0.0290,-0.0794,0.0001,0.0007,0.0004,
7.641824,0.0000,-0.0008,0.9991,-0.0100,0.0290,-0.0794,0.0003,-0.0001,-0.0000,
7.649424,0.0000,-0.0008,0.9991,-0.0099,0.0321,-0.0774,0.0003,-0.0001,-0.0000,
7.659556,0.0001,-0.0008,0.9984,-0.0099,0.0321,-0.0774,0.0003,-0.0001,-0.0000,
7.679542,0.0003,-0.0007,1.0006,-0.0099,0.0321,-0.0774,0.0003,-0.0001,-0.0000,
7.698999,0.0014,-0.0012,0.9991,-0.0099,0.0321,-0.0774,0.0003,-0.0001,-0.0000,
7.704838,0.0014,-0.0012,0.9991,-0.0099,0.0321,-0.0774,-0.0001,0.0004,0.0003,
7.713602,0.0014,-0.0012,0.9991,-0.0123,0.0287,-0.0775,-0.0001,0.0004,0.0003,
7.720295,0.0012,-0.0018,0.9990,-0.0123,0.0287,-0.0775,-0.0001,0.0004,0.0003,
7.743204,0.0004,-0.0014,0.9997,-0.0123,0.0287,-0.0775,-0.0001,0.0004,0.0003,
7.763212,0.0010,-0.0002,0.9978,-0.0123,0.0287,-0.0775,-0.0001,0.0004,0.0003,
7.771678,0.0010,-0.0002,0.9978,-0.0123,0.0287,-0.0775,-0.0010,-0.0000,0.0001,
7.779463,0.0018,-0.0006,0.9998,-0.0123,0.0287,-0.0775,-0.0010,-0.0000,0.0001,
7.781397,0.0018,-0.0006,0.9998,-0.0094,0.0279,-0.0712,-0.0010,-0.0000,0.0001,
7.798903,0.0011,-0.0020,0.9984,-0.0094,0.0279,-0.0712,-0.0010,-0.0000,0.0001,
7.818257,-0.0001,-0.0003,0.9989,-0.0094,0.0279,-0.0712,-0.0010,-0.0000,0.0001,
7.833261,-0.0001,-0.0003,0.9989,-0.0094,0.0279,-0.0712,-0.0008,0.0005,-0.0001,
7.839768,-0.0002,-0.0009,0.9985,-0.0094,0.0279,-0.0712,-0.0008,0.0005,-0.0001,
7.843911,-0.0002,-0.0009,0.9985,-0.0068,0.0277,-0.0652,-0.0008,0.0005,-0.0001,
7.860652,0.0014,-0.0254,1.0009,-0.0068,0.0277,-0.0652,-0.0008,0.0005,-0.0001,
7.883035,-0.0693,-0.0473,0.9943,-0.0068,0.0277,-0.0652,-0.0008,0.0005,-0.0001,
7.899142,-0.0709,-0.0875,0.9980,-0.0068,0.0277,-0.0652,-0.0008,0.0005,-0.0001,
7.901030,-0.0709,-0.0875,0.9980,-0.0068,0.0277,-0.0652,0.0023,-0.0041,-0.4302,
7.908868,-0.0709,-0.0875,0.9980,-0.0100,0.0182,-0.0645,0.0023,-0.0041,-0.4302,
7.923330,-0.0412,-0.1937,0.9913,-0.0100,0.0182,-0.0645,0.0023,-0.0041,-0.4302,
7.939725,-0.1981,0.2667,1.0149,-0.0100,0.0182,-0.0645,0.0023,-0.0041,-0.4302,
7.959616,0.1125,0.1046,1.0218,-0.0100,0.0182,-0.0645,0.0023,-0.0041,-0.4302,
7.963341,0.1125,0.1046,1.0218,-0.0100,0.0182,-0.0645,-0.0103,-0.0499,-0.0244,
7.973198,0.1125,0.1046,1.0218,-0.5274,-0.6046,-0.0525,-0.0103,-0.0499,-0.0244,
7.978600,0.2826,-0.1246,1.1236,-0.5274,-0.6046,-0.0525,-0.0103,-0.0499,-0.0244,
7.999455,0.0676,-0.1672,0.9694,-0.5274,-0.6046,-0.0525,-0.0103,-0.0499,-0.0244,
8.023117,0.0139,-0.2339,1.0767,-0.5274,-0.6046,-0.0525,-0.0103,-0.0499,-0.0244,
8.028838,0.0139,-0.2339,1.0767,-0.5274,-0.6046,-0.0525,-0.5006,-0.4299,-0.1797,
8.039696,-0.1034,-0.0591,1.2922,-0.5274,-0.6046,-0.0525,-0.5006,-0.4299,-0.1797,
8.042435,-0.1034,-0.0591,1.2922,0.4152,0.5651,0.2792,-0.5006,-0.4299,-0.1797,
8.059956,-0.1893,0.3374,0.6145,0.4152,0.5651,0.2792,-0.5006,-0.4299,-0.1797,
8.083518,0.0494,0.2929,0.5713,0.4152,0.5651,0.2792,-0.5006,-0.4299,-0.1797,
8.093334,0.0494,0.2929,0.5713,0.4152,0.5651,0.2792,-1.1269,0.4835,0.3932,
8.098642,0.2976,-0.2855,1.9911,0.4152,0.5651,0.2792,-1.1269,0.4835,0.3932,
8.103926,0.2976,-0.2855,1.9911,-0.5019,-1.0584,1.0449,-1.1269,0.4835,0.3932,
8.120691,-0.3719,-0.3245,0.4555,-0.5019,-1.0584,1.0449,-1.1269,0.4835,0.3932,
8.138816,-0.3405,-0.4225,1.2682,-0.5019,-1.0584,1.0449,-1.1269,0.4835,0.3932,
8.158935,-0.1535,-0.3445,1.1759,-0.5019,-1.0584,1.0449,-1.1269,0.4835,0.3932,
8.161232,-0.1535,-0.3445,1.1759,-0.5019,-1.0584,1.0449,-0.5589,3.3555,0.0307,
8.170223,-0.1535,-0.3445,1.1759,0.6975,2.0763,-0.4149,-0.5589,3.3555,0.0307,
8.178158,0.2191,-0.1271,1.0871,0.6975,2.0763,-0.4149,-0.5589,3.3555,0.0307,
8.198847,0.2050,-0.0216,1.2858,0.6975,2.0763,-0.4149,-0.5589,3.3555,0.0307,
8.220364,-0.4597,-0.1789,1.4528,0.6975,2.0763,-0.4149,-0.5589,3.3555,0.0307,
8.223097,-0.4597,-0.1789,1.4528,0.6975,2.0763,-0.4149,0.8093,-0.3914,-2.5393,
8.233349,-0.4597,-0.1789,1.4528,0.0964,-1.8992,1.0375,0.8093,-0.3914,-2.5393,
8.243303,-0.5423,-0.3831,1.3354,0.0964,-1.8992,1.0375,0.8093,-0.3914,-2.5393,
8.259080,-0.5483,0.1544,0.6390,0.0964,-1.8992,1.0375,0.8093,-0.3914,-2.5393,
8.283844,-0.0136,0.4651,0.5999,0.0964,-1.8992,1.0375,0.8093,-0.3914,-2.5393,
8.288892,-0.0136,0.4651,0.5999,0.0964,-1.8992,1.0375,2.7108,0.2631,-0.2200,
8.299087,0.1690,0.2145,1.2245,0.0964,-1.8992,1.0375,2.7108,0.2631,-0.2200,
8.301546,0.1690,0.2145,1.2245,-0.1409,-0.6565,3.1999,2.7108,0.2631,-0.2200,
8.318693,-0.1687,-0.1675,1.4425,-0.1409,-0.6565,3.1999,2.7108,0.2631,-0.2200,
8.339355,-0.2140,-0.2272,1.4100,-0.1409,-0.6565,3.1999,2.7108,0.2631,-0.2200,
8.355942,-0.2140,-0.2272,1.4100,-0.1409,-0.6565,3.1999,0.9899,-0.8756,1.7857,
8.359281,-0.6652,-0.0410,1.3895,-0.1409,-0.6565,3.1999,0.9899,-0.8756,1.7857,
8.364035,-0.6652,-0.0410,1.3895,0.1924,1.5735,-1.4177,0.9899,-0.8756,1.7857,
8.383098,-0.5521,-0.0325,1.0883,0.1924,1.5735,-1.4177,0.9899,-0.8756,1.7857,
8.403348,-0.3147,0.1709,0.3133,0.1924,1.5735,-1.4177,0.9899,-0.8756,1.7857,
8.420386,-0.0114,0.3130,0.2984,0.1924,1.5735,-1.4177,0.9899,-0.8756,1.7857,
8.423259,-0.0114,0.3130,0.2984,0.1924,1.5735,-1.4177,1.3208,0.2119,2.2000,
8.428197,-0.0114,0.3130,0.2984,-2.5298,-2.8241,4.0214,1.3208,0.2119,2.2000,
8.439117,0.4407,0.1897,0.6625,-2.5298,-2.8241,4.0214,1.3208,0.2119,2.2000,
8.458313,0.3376,0.0536,0.7432,-2.5298,-2.8241,4.0214,1.3208,0.2119,2.2000,
8.483016,0.1981,0.0009,0.2239,-2.5298,-2.8241,4.0214,1.3208,0.2119,2.2000,
8.485055,0.1981,0.0009,0.2239,-2.5298,-2.8241,4.0214,-1.8242,-3.0995,1.7892,
8.492865,0.1981,0.0009,0.2239,-0.7996,-0.3684,-4.6771,-1.8242,-3.0995,1.7892,
8.499446,0.4306,0.0214,-0.0343,-0.7996,-0.3684,-4.6771,-1.8242,-3.0995,1.7892,
8.518682,0.1888,-0.0858,-0.1672,-0.7996,-0.3684,-4.6771,-1.8242,-3.0995,1.7892,
8.539255,0.2013,-0.5790,1.5106,-0.7996,-0.3684,-4.6771,-1.8242,-3.0995,1.7892,
8.548013,0.2013,-0.5790,1.5106,-0.7996,-0.3684,-4.6771,-3.2944,2.9164,0.6360,
8.558616,0.3101,-0.4836,2.1013,-0.7996,-0.3684,-4.6771,-3.2944,2.9164,0.6360,
8.561179,0.3101,-0.4836,2.1013,2.2336,-0.1220,-5.7611,-3.2944,2.9164,0.6360,
8.578255,0.2548,-0.3810,0.9656,2.2336,-0.1220,-5.7611,-3.2944,2.9164,0.6360,
8.602902,0.2685,-0.2389,0.1411,2.2336,-0.1220,-5.7611,-3.2944,2.9164,0.6360,
8.613106,0.2685,-0.2389,0.1411,2.2336,-0.1220,-5.7611,-1.7982,-1.1363,-2.8834,
8.620838,-0.1458,-0.1415,0.8683,2.2336,-0.1220,-5.7611,-1.7982,-1.1363,-2.8834,
8.624322,-0.1458,-0.1415,0.8683,2.8153,-1.9428,0.5593,-1.7982,-1.1363,-2.8834,
8.638750,-0.2356,0.0762,1.3291,2.8153,-1.9428,0.5593,-1.7982,-1.1363,-2.8834,
8.663542,0.0220,-0.3080,1.0256,2.8153,-1.9428,0.5593,-1.7982,-1.1363,-2.8834,
8.678120,0.1666,-0.4659,1.0029,2.8153,-1.9428,0.5593,-1.7982,-1.1363,-2.8834,
8.680521,0.1666,-0.4659,1.0029,2.8153,-1.9428,0.5593,-0.1395,1.6366,-0.6846,
8.689501,0.1666,-0.4659,1.0029,0.4895,0.1885,-2.6708,-0.1395,1.6366,-0.6846,
8.698289,-0.0649,-0.4714,1.1475,0.4895,0.1885,-2.6708,-0.1395,1.6366,-0.6846,
8.722851,0.0726,-0.4962,1.2261,0.4895,0.1885,-2.6708,-0.1395,1.6366,-0.6846,
8.745965,-0.2026,-0.4391,1.2630,0.4895,0.1885,-2.6708,-0.1395,1.6366,-0.6846,
8.748225,-0.2026,-0.4391,1.2630,0.4895,0.1885,-2.6708,0.4379,1.3841,-1.6083,
8.757120,-0.2026,-0.4391,1.2630,0.7624,-0.5746,1.4060,0.4379,1.3841,-1.6083,
8.769096,-0.7642,-0.1085,1.4060,0.7624,-0.5746,1.4060,0.4379,1.3841,-1.6083,
8.782527,-1.4457,0.4615,1.4776,0.7624,-0.5746,1.4060,0.4379,1.3841,-1.6083,
8.797921,-1.7250,0.8035,1.5548,0.7624,-0.5746,1.4060,0.4379,1.3841,-1.6083,
8.807787,-1.7250,0.8035,1.5548,0.7624,-0.5746,1.4060,2.1542,0.5380,-0.7041,
8.819362,-1.7250,0.8035,1.5548,-0.8419,-1.8107,2.8861,2.1542,0.5380,-0.7041,
8.822261,-1.4210,0.6728,1.2405,-0.8419,-1.8107,2.8861,2.1542,0.5380,-0.7041,
8.838079,-1.1809,0.5724,0.9465,-0.8419,-1.8107,2.8861,2.1542,0.5380,-0.7041,
8.862680,-1.3047,0.6643,0.7575,-0.8419,-1.8107,2.8861,2.1542,0.5380,-0.7041,
8.872548,-1.3047,0.6643,0.7575,-0.8419,-1.8107,2.8861,2.5451,-0.0644,2.9428,
8.878191,-1.2579,0.5323,0.8761,-0.8419,-1.8107,2.8861,2.5451,-0.0644,2.9428,
8.883502,-1.2579,0.5323,0.8761,-13.0940,6.1569,4.0937,2.5451,-0.0644,2.9428,
8.902980,-1.0909,0.1436,0.9841,-13.0940,6.1569,4.0937,2.5451,-0.0644,2.9428,
8.917605,-0.7927,-0.2429,0.8824,-13.0940,6.1569,4.0937,2.5451,-0.0644,2.9428,
8.937568,-0.4902,-0.4661,0.6333,-13.0940,6.1569,4.0937,2.5451,-0.0644,2.9428,
8.939655,-0.4902,-0.4661,0.6333,-13.0940,6.1569,4.0937,0.6313,0.1540,5.3214,
8.949084,-0.4902,-0.4661,0.6333,-10.5716,4.1322,-1.2415,0.6313,0.1540,5.3214,
8.962994,-0.0402,-0.6954,0.5539,-10.5716,4.1322,-1.2415,0.6313,0.1540,5.3214,
8.977416,0.1775,-0.8988,0.6603,-10.5716,4.1322,-1.2415,0.6313,0.1540,5.3214,
8.997313,0.5672,-1.0590,0.8573,-10.5716,4.1322,-1.2415,0.6313,0.1540,5.3214,
9.002700,0.5672,-1.0590,0.8573,-10.5716,4.1322,-1.2415,-0.7784,0.2264,5.0394,
9.012456,0.5672,-1.0590,0.8573,-5.3532,-4.9503,-2.0424,-0.7784,0.2264,5.0394,
9.029194,0.7624,-1.1719,0.9391,-5.3532,-4.9503,-2.0424,-0.7784,0.2264,5.0394,
9.042709,0.7701,-1.1933,0.9918,-5.3532,-4.9503,-2.0424,-0.7784,0.2264,5.0394,
9.062413,0.7619,-1.2521,0.9590,-5.3532,-4.9503,-2.0424,-0.7784,0.2264,5.0394,
9.070497,0.7619,-1.2521,0.9590,-5.3532,-4.9503,-2.0424,-0.5129,0.9178,2.3387,
9.078680,0.9202,-1.2246,0.9454,-5.3532,-4.9503,-2.0424,-0.5129,0.9178,2.3387,
9.080047,0.9202,-1.2246,0.9454,4.6473,-11.2199,-2.2082,-0.5129,0.9178,2.3387,
9.103213,0.9751,-1.1290,1.0040,4.6473,-11.2199,-2.2082,-0.5129,0.9178,2.3387,
9.119555,0.7448,-0.9390,0.9563,4.6473,-11.2199,-2.2082,-0.5129,0.9178,2.3387,
9.133393,0.7448,-0.9390,0.9563,4.6473,-11.2199,-2.2082,-0.3100,0.6743,-1.5047,
9.142704,0.4343,-0.6905,0.8180,4.6473,-11.2199,-2.2082,-0.3100,0.6743,-1.5047,
9.145518,0.4343,-0.6905,0.8180,8.9558,-13.0933,-0.2631,-0.3100,0.6743,-1.5047,
9.162932,0.0226,-0.3945,0.7812,8.9558,-13.0933,-0.2631,-0.3100,0.6743,-1.5047,
9.177664,-0.2056,-0.1455,0.7648,8.9558,-13.0933,-0.2631,-0.3100,0.6743,-1.5047,
9.197473,-0.2056,-0.1455,0.7648,8.9558,-13.0933,-0.2631,-1.2204,0.6472,-3.8800,
9.200276,-0.4205,0.0417,0.7460,8.9558,-13.0933,-0.2631,-1.2204,0.6472,-3.8800,
9.208531,-0.4205,0.0417,0.7460,7.9512,-9.2490,-0.7118,-1.2204,0.6472,-3.8800,
9.229899,-1.0606,0.5284,1.3653,7.9512,-9.2490,-0.7118,-1.2204,0.6472,-3.8800,
9.238281,-1.5452,0.7742,2.2842,7.9512,-9.2490,-0.7118,-1.2204,0.6472,-3.8800,
9.263177,-1.4125,0.7208,2.3217,7.9512,-9.2490,-0.7118,-1.2204,0.6472,-3.8800,
9.265445,-1.4125,0.7208,2.3217,7.9512,-9.2490,-0.7118,-1.7691,-0.4843,-2.5493,
9.272632,-1.4125,0.7208,2.3217,-1.3879,0.2987,-1.6035,-1.7691,-0.4843,-2.5493,
9.278653,-1.5780,0.7812,2.4094,-1.3879,0.2987,-1.6035,-1.7691,-0.4843,-2.5493,
9.297695,-1.6509,0.6053,2.1432,-1.3879,0.2987,-1.6035,-1.7691,-0.4843,-2.5493,
9.318752,-1.5568,0.5044,1.8374,-1.3879,0.2987,-1.6035,-1.7691,-0.4843,-2.5493,
9.328262,-1.5568,0.5044,1.8374,-1.3879,0.2987,-1.6035,3.7210,0.6952,1.9697,
9.339473,-1.1800,0.1606,1.4761,-1.3879,0.2987,-1.6035,3.7210,0.6952,1.9697,
9.343584,-1.1800,0.1606,1.4761,-13.0325,8.8682,12.0905,3.7210,0.6952,1.9697,
9.363039,-0.9031,-0.1222,1.1221,-13.0325,8.8682,12.0905,3.7210,0.6952,1.9697,
9.377377,-0.7980,-0.2832,1.0776,-13.0325,8.8682,12.0905,3.7210,0.6952,1.9697,
9.392678,-0.7980,-0.2832,1.0776,-13.0325,8.8682,12.0905,6.3084,3.3966,6.3489,
9.397725,-0.6237,-0.4024,1.2313,-13.0325,8.8682,12.0905,6.3084,3.3966,6.3489,
9.403342,-0.6237,-0.4024,1.2313,-12.1251,2.3661,8.5436,6.3084,3.3966,6.3489,
9.419665,-0.4221,-0.6175,1.2605,-12.1251,2.3661,8.5436,6.3084,3.3966,6.3489,
9.437672,-0.0635,-0.7972,1.2113,-12.1251,2.3661,8.5436,6.3084,3.3966,6.3489,
9.457786,0.2661,-0.8342,1.2206,-12.1251,2.3661,8.5436,6.3084,3.3966,6.3489,
9.460242,0.2661,-0.8342,1.2206,-12.1251,2.3661,8.5436,7.1597,5.3484,8.4173,
9.469692,0.2661,-0.8342,1.2206,-4.8264,-9.4530,4.1041,7.1597,5.3484,8.4173,
9.477963,0.6717,-0.7941,1.0212,-4.8264,-9.4530,4.1041,7.1597,5.3484,8.4173,
9.497559,0.9908,-0.5578,0.7720,-4.8264,-9.4530,4.1041,7.1597,5.3484,8.4173,
9.517509,1.0275,-0.2263,0.5668,-4.8264,-9.4530,4.1041,7.1597,5.3484,8.4173,
9.522243,1.0275,-0.2263,0.5668,-4.8264,-9.4530,4.1041,6.7930,3.8983,5.3659,
9.532417,1.0275,-0.2263,0.5668,0.3171,-17.0909,9.0114,6.7930,3.8983,5.3659,
9.552428,0.8920,0.0048,0.1938,0.3171,-17.0909,9.0114,6.7930,3.8983,5.3659,
9.557685,1.3124,0.1066,-0.4229,0.3171,-17.0909,9.0114,6.7930,3.8983,5.3659,
9.577497,1.8812,-0.0414,-1.0752,0.3171,-17.0909,9.0114,6.7930,3.8983,5.3659,
9.587712,1.8812,-0.0414,-1.0752,0.3171,-17.0909,9.0114,0.7610,-1.7665,-1.7405,
9.597387,1.5115,-0.4151,-0.9832,0.3171,-17.0909,9.0114,0.7610,-1.7665,-1.7405,
9.600037,1.5115,-0.4151,-0.9832,6.5777,-12.8019,6.6862,0.7610,-1.7665,-1.7405,
9.622509,0.7273,-0.9483,-0.3564,6.5777,-12.8019,6.6862,0.7610,-1.7665,-1.7405,
9.638299,0.2537,-1.3660,0.4963,6.5777,-12.8019,6.6862,0.7610,-1.7665,-1.7405,
9.654391,0.2537,-1.3660,0.4963,6.5777,-12.8019,6.6862,-12.1137,-7.6403,-10.5218,
9.660365,-0.0829,-1.6636,1.6613,6.5777,-12.8019,6.6862,-12.1137,-7.6403,-10.5218,
9.664168,-0.0829,-1.6636,1.6613,14.6164,-10.5384,-7.7642,-12.1137,-7.6403,-10.5218,
9.680198,-0.6402,-1.8079,2.2202,14.6164,-10.5384,-7.7642,-12.1137,-7.6403,-10.5218,
9.697449,-0.9508,-1.4640,3.1252,14.6164,-10.5384,-7.7642,-12.1137,-7.6403,-10.5218,
9.718117,-1.7450,-0.6734,4.3636,14.6164,-10.5384,-7.7642,-12.1137,-7.6403,-10.5218,
9.720737,-1.7450,-0.6734,4.3636,14.6164,-10.5384,-7.7642,-12.0663,-6.7831,-9.6236,
9.727986,-1.7450,-0.6734,4.3636,5.3020,-17.1780,-0.8364,-12.0663,-6.7831,-9.6236,
9.750793,-2.1580,-0.2018,3.8012,5.3020,-17.1780,-0.8364,-12.0663,-6.7831,-9.6236,
9.762933,-1.2200,-0.5101,1.9189,5.3020,-17.1780,-0.8364,-12.0663,-6.7831,-9.6236,
9.777490,-0.4917,-0.3491,1.5136,5.3020,-17.1780,-0.8364,-12.0663,-6.7831,-9.6236,
9.782895,-0.4917,-0.3491,1.5136,5.3020,-17.1780,-0.8364,3.8237,3.3833,1.1289,
9.797049,-0.4917,-0.3491,1.5136,-12.6129,-8.5114,24.9425,3.8237,3.3833,1.1289,
9.799418,-0.4460,0.1735,1.6768,-12.6129,-8.5114,24.9425,3.8237,3.3833,1.1289,
9.817891,-0.9053,0.3084,1.6670,-12.6129,-8.5114,24.9425,3.8237,3.3833,1.1289,
9.837585,-1.1640,0.3217,1.5695,-12.6129,-8.5114,24.9425,3.8237,3.3833,1.1289,
9.847233,-1.1640,0.3217,1.5695,-12.6129,-8.5114,24.9425,3.9785,1.3117,3.0382,
9.858193,-1.0113,0.1645,1.4683,-12.6129,-8.5114,24.9425,3.9785,1.3117,3.0382,
9.860539,-1.0113,0.1645,1.4683,-5.9877,-3.4153,9.7826,3.9785,1.3117,3.0382,
9.877839,-0.6282,-0.0394,1.2501,-5.9877,-3.4153,9.7826,3.9785,1.3117,3.0382,
9.896999,-0.3163,-0.1645,0.9975,-5.9877,-3.4153,9.7826,3.9785,1.3117,3.0382,
9.912290,-0.3163,-0.1645,0.9975,-5.9877,-3.4153,9.7826,7.6901,4.5275,6.6665,
9.919265,-0.0963,-0.2596,0.6444,-5.9877,-3.4153,9.7826,7.6901,4.5275,6.6665,
9.922626,-0.0963,-0.2596,0.6444,-6.1366,-1.9070,7.3956,7.6901,4.5275,6.6665,
9.937304,0.1509,-0.2585,0.3196,-6.1366,-1.9070,7.3956,7.6901,4.5275,6.6665,
9.958510,0.2768,-0.1096,0.2088,-6.1366,-1.9070,7.3956,7.6901,4.5275,6.6665,
9.977757,0.3047,0.0999,0.4943,-6.1366,-1.9070,7.3956,7.6901,4.5275,6.6665,
9.979882,0.3047,0.0999,0.4943,-6.1366,-1.9070,7.3956,6.9133,5.8677,6.4711,
9.987800,0.3047,0.0999,0.4943,-0.8412,-10.3536,5.2519,6.9133,5.8677,6.4711,
9.997358,0.4924,0.1045,0.5762,-0.8412,-10.3536,5.2519,6.9133,5.8677,6.4711,
10.017500,1.4262,0.0142,0.1723,-0.8412,-10.3536,5.2519,6.9133,5.8677,6.4711,
10.037215,2.8242,-0.3489,-0.9304,-0.8412,-10.3536,5.2519,6.9133,5.8677,6.4711,
10.042364,2.8242,-0.3489,-0.9304,-0.8412,-10.3536,5.2519,1.8601,-0.1628,1.8499,
10.052185,2.8242,-0.3489,-0.9304,1.8124,-9.9735,4.0379,1.8601,-0.1628,1.8499,
10.057347,2.4246,-0.7811,-1.2090,1.8124,-9.9735,4.0379,1.8601,-0.1628,1.8499,
10.084185,1.0280,-1.2171,-0.1819,1.8124,-9.9735,4.0379,1.8601,-0.1628,1.8499,
10.102218,0.4888,-1.5943,1.0955,1.8124,-9.9735,4.0379,1.8601,-0.1628,1.8499,
10.107244,0.4888,-1.5943,1.0955,1.8124,-9.9735,4.0379,-12.1377,-10.5693,-10.7097,
10.130130,-0.2409,-1.5737,2.2620,1.8124,-9.9735,4.0379,-12.1377,-10.5693,-10.7097,
10.132834,-0.2409,-1.5737,2.2620,19.1261,-11.9219,-4.4843,-12.1377,-10.5693,-10.7097,
10.138815,-1.0998,-1.1472,2.6824,19.1261,-11.9219,-4.4843,-12.1377,-10.5693,-10.7097,
10.156763,-1.5154,-0.4186,2.9416,19.1261,-11.9219,-4.4843,-12.1377,-10.5693,-10.7097,
10.172031,-1.5154,-0.4186,2.9416,19.1261,-11.9219,-4.4843,-10.0130,-8.2050,-8.6962,
10.177439,-1.8318,0.0620,2.9166,19.1261,-11.9219,-4.4843,-10.0130,-8.2050,-8.6962,
10.182753,-1.8318,0.0620,2.9166,7.5462,-18.0898,1.1339,-10.0130,-8.2050,-8.6962,
10.196944,-1.6113,-0.0698,1.8984,7.5462,-18.0898,1.1339,-10.0130,-8.2050,-8.6962,
10.216574,-0.7021,-0.2178,1.5554,7.5462,-18.0898,1.1339,-10.0130,-8.2050,-8.6962,
10.238823,-0.0516,-0.1030,1.6791,7.5462,-18.0898,1.1339,-10.0130,-8.2050,-8.6962,
10.242245,-0.0516,-0.1030,1.6791,7.5462,-18.0898,1.1339,1.7516,2.6802,1.8244,
10.247816,-0.0516,-0.1030,1.6791,-15.2825,-4.0099,18.1736,1.7516,2.6802,1.8244,
10.269299,0.2587,0.0387,1.3258,-15.2825,-4.0099,18.1736,1.7516,2.6802,1.8244,
10.277769,0.1679,0.0621,0.9128,-15.2825,-4.0099,18.1736,1.7516,2.6802,1.8244,
10.297992,-0.1013,0.1735,0.8331,-15.2825,-4.0099,18.1736,1.7516,2.6802,1.8244,
10.302454,-0.1013,0.1735,0.8331,-15.2825,-4.0099,18.1736,-0.2674,-1.8542,-0.0670,
10.312074,-0.1013,0.1735,0.8331,-3.7649,-2.2213,6.6822,-0.2674,-1.8542,-0.0670,
10.318158,-0.3475,0.2597,0.9760,-3.7649,-2.2213,6.6822,-0.2674,-1.8542,-0.0670,
10.337746,-0.3676,0.2321,1.0906,-3.7649,-2.2213,6.6822,-0.2674,-1.8542,-0.0670,
10.357508,-0.2236,0.1381,1.0141,-3.7649,-2.2213,6.6822,-0.2674,-1.8542,-0.0670,
10.369422,-0.2236,0.1381,1.0141,-3.7649,-2.2213,6.6822,0.1481,-0.1785,0.5196,
10.377489,-0.2236,0.1381,1.0141,0.0033,0.8355,-0.2471,0.1481,-0.1785,0.5196,
10.378738,-0.1094,0.0550,0.9056,0.0033,0.8355,-0.2471,0.1481,-0.1785,0.5196,
10.396983,0.0078,-0.0394,0.7347,0.0033,0.8355,-0.2471,0.1481,-0.1785,0.5196,
10.418308,0.0729,-0.0621,0.5113,0.0033,0.8355,-0.2471,0.1481,-0.1785,0.5196,
10.432870,0.0729,-0.0621,0.5113,0.0033,0.8355,-0.2471,-0.1947,-0.1422,0.9618,
10.439124,0.0837,-0.0249,0.6365,0.0033,0.8355,-0.2471,-0.1947,-0.1422,0.9618,
10.442445,0.0837,-0.0249,0.6365,-2.2311,0.6934,0.4282,-0.1947,-0.1422,0.9618,
10.458060,0.0088,0.1053,0.8271,-2.2311,0.6934,0.4282,-0.1947,-0.1422,0.9618,
10.478123,-0.1089,0.0905,0.3246,-2.2311,0.6934,0.4282,-0.1947,-0.1422,0.9618,
10.496911,-0.1463,-0.1298,0.6769,-2.2311,0.6934,0.4282,-0.1947,-0.1422,0.9618,
10.499055,-0.1463,-0.1298,0.6769,-2.2311,0.6934,0.4282,-0.1268,2.4208,0.6868,
10.506962,-0.1463,-0.1298,0.6769,0.9592,-1.0430,-3.0555,-0.1268,2.4208,0.6868,
10.519745,-0.5804,0.0559,1.1504,0.9592,-1.0430,-3.0555,-0.1268,2.4208,0.6868,
10.537667,-1.0036,0.0867,1.5793,0.9592,-1.0430,-3.0555,-0.1268,2.4208,0.6868,
10.557987,-1.3435,0.1027,2.0811,0.9592,-1.0430,-3.0555,-0.1268,2.4208,0.6868,
10.562976,-1.3435,0.1027,2.0811,0.9592,-1.0430,-3.0555,-0.8851,1.9506,1.2558,
10.573409,-1.3435,0.1027,2.0811,0.2040,-0.1557,-2.7726,-0.8851,1.9506,1.2558,
10.576687,-1.1349,0.0009,2.1543,0.2040,-0.1557,-2.7726,-0.8851,1.9506,1.2558,
10.597211,-0.7926,-0.0284,1.6084,0.2040,-0.1557,-2.7726,-0.8851,1.9506,1.2558,
10.619912,-0.5572,-0.0203,1.0695,0.2040,-0.1557,-2.7726,-0.8851,1.9506,1.2558,
10.627956,-0.5572,-0.0203,1.0695,0.2040,-0.1557,-2.7726,2.5816,0.8093,3.8434,
10.640481,-0.6460,0.1257,1.0484,0.2040,-0.1557,-2.7726,2.5816,0.8093,3.8434,
10.643655,-0.6460,0.1257,1.0484,-7.8034,0.0537,8.9221,2.5816,0.8093,3.8434,
10.657712,-0.8553,0.1313,1.2185,-7.8034,0.0537,8.9221,2.5816,0.8093,3.8434,
10.677637,-0.6050,0.0317,1.3620,-7.8034,0.0537,8.9221,2.5816,0.8093,3.8434,
10.692165,-0.6050,0.0317,1.3620,-7.8034,0.0537,8.9221,3.0926,1.1441,5.5290,
10.696842,-0.0063,-0.1736,1.1649,-7.8034,0.0537,8.9221,3.0926,1.1441,5.5290,
10.704899,-0.0063,-0.1736,1.1649,-3.8388,-2.6735,4.0032,3.0926,1.1441,5.5290,
10.718535,0.7508,-0.2610,0.5757,-3.8388,-2.6735,4.0032,3.0926,1.1441,5.5290,
10.739903,1.1691,-0.0898,0.1643,-3.8388,-2.6735,4.0032,3.0926,1.1441,5.5290,
10.757229,1.0859,0.1050,0.0634,-3.8388,-2.6735,4.0032,3.0926,1.1441,5.5290,
10.759977,1.0859,0.1050,0.0634,-3.8388,-2.6735,4.0032,1.8164,-1.5812,2.5192,
10.769054,1.0859,0.1050,0.0634,-2.2019,-5.7982,4.2662,1.8164,-1.5812,2.5192,
10.776996,0.7457,0.2315,0.1571,-2.2019,-5.7982,4.2662,1.8164,-1.5812,2.5192,
10.796407,0.3100,0.2689,0.3897,-2.2019,-5.7982,4.2662,1.8164,-1.5812,2.5192,
10.817388,0.0578,0.3240,0.7208,-2.2019,-5.7982,4.2662,1.8164,-1.5812,2.5192,
10.821933,0.0578,0.3240,0.7208,-2.2019,-5.7982,4.2662,-2.1435,-2.9398,-2.5273,
10.832303,0.0578,0.3240,0.7208,10.2560,-6.0859,-5.4382,-2.1435,-2.9398,-2.5273,
10.837888,0.0037,0.3333,0.8643,10.2560,-6.0859,-5.4382,-2.1435,-2.9398,-2.5273,
10.857810,-0.0549,0.3348,0.7724,10.2560,-6.0859,-5.4382,-2.1435,-2.9398,-2.5273,
10.877505,-0.2779,0.4318,0.8376,10.2560,-6.0859,-5.4382,-2.1435,-2.9398,-2.5273,
10.887308,-0.2779,0.4318,0.8376,10.2560,-6.0859,-5.4382,-1.4330,-1.4406,-2.2821,
10.896868,-0.3422,0.5069,0.9899,10.2560,-6.0859,-5.4382,-1.4330,-1.4406,-2.2821,
10.898428,-0.3422,0.5069,0.9899,1.8392,-1.7839,-2.5628,-1.4330,-1.4406,-2.2821,
10.916997,-0.2096,0.4906,1.0106,1.8392,-1.7839,-2.5628,-1.4330,-1.4406,-2.2821,
10.936938,-0.0947,0.4873,0.9753,1.8392,-1.7839,-2.5628,-1.4330,-1.4406,-2.2821,
10.952685,-0.0947,0.4873,0.9753,1.8392,-1.7839,-2.5628,-0.1805,0.2716,-0.6958,
10.957956,-0.0495,0.4681,0.9307,1.8392,-1.7839,-2.5628,-0.1805,0.2716,-0.6958,
10.962838,-0.0495,0.4681,0.9307,-2.1227,-0.0806,0.0072,-0.1805,0.2716,-0.6958,
10.976644,-0.1368,0.4783,0.9046,-2.1227,-0.0806,0.0072,-0.1805,0.2716,-0.6958,
10.997433,-0.2522,0.5059,1.0776,-2.1227,-0.0806,0.0072,-0.1805,0.2716,-0.6958,
11.020046,-0.2218,0.4697,1.1894,-2.1227,-0.0806,0.0072,-0.1805,0.2716,-0.6958,
11.023188,-0.2218,0.4697,1.1894,-2.1227,-0.0806,0.0072,-0.8102,-0.4611,-0.4590,
11.027520,-0.2218,0.4697,1.1894,-1.0349,0.7366,0.8851,-0.8102,-0.4611,-0.4590,
11.038324,-0.0763,0.4118,1.1144,-1.0349,0.7366,0.8851,-0.8102,-0.4611,-0.4590,
11.056682,0.0502,0.3672,0.9591,-1.0349,0.7366,0.8851,-0.8102,-0.4611,-0.4590,
11.076959,0.0697,0.3656,0.8667,-1.0349,0.7366,0.8851,-0.8102,-0.4611,-0.4590,
11.082229,0.0697,0.3656,0.8667,-1.0349,0.7366,0.8851,0.0439,0.0154,0.0177,
11.091761,0.0697,0.3656,0.8667,-1.8839,0.9714,1.8989,0.0439,0.0154,0.0177,
11.096505,0.0081,0.3781,0.9393,-1.8839,0.9714,1.8989,0.0439,0.0154,0.0177,
11.116571,-0.0425,0.3922,1.0189,-1.8839,0.9714,1.8989,0.0439,0.0154,0.0177,
11.137372,-0.1067,0.4065,0.9985,-1.8839,0.9714,1.8989,0.0439,0.0154,0.0177,
11.148149,-0.1067,0.4065,0.9985,-1.8839,0.9714,1.8989,-0.0077,0.0042,-0.3928,
11.157227,-0.0917,0.4099,0.9249,-1.8839,0.9714,1.8989,-0.0077,0.0042,-0.3928,
11.160653,-0.0917,0.4099,0.9249,0.3728,-0.0050,0.4543,-0.0077,0.0042,-0.3928,
11.176604,-0.1226,0.4095,0.9159,0.3728,-0.0050,0.4543,-0.0077,0.0042,-0.3928,
11.196782,-0.1402,0.4021,0.9792,0.3728,-0.0050,0.4543,-0.0077,0.0042,-0.3928,
11.212145,-0.1402,0.4021,0.9792,0.3728,-0.0050,0.4543,0.3225,0.4823,-0.2197,
11.218253,-0.2211,0.4093,1.0678,0.3728,-0.0050,0.4543,0.3225,0.4823,-0.2197,
11.221954,-0.2211,0.4093,1.0678,-0.5655,0.2256,0.8676,0.3225,0.4823,-0.2197,
11.236610,-0.3438,0.4643,1.1822,-0.5655,0.2256,0.8676,0.3225,0.4823,-0.2197,
11.256603,-0.6000,0.5256,1.2317,-0.5655,0.2256,0.8676,0.3225,0.4823,-0.2197,
11.276816,-1.1498,0.7232,1.3997,-0.5655,0.2256,0.8676,0.3225,0.4823,-0.2197,
11.279688,-1.1498,0.7232,1.3997,-0.5655,0.2256,0.8676,3.0568,4.5042,1.2906,
11.286694,-1.1498,0.7232,1.3997,-0.9174,-0.0421,1.2119,3.0568,4.5042,1.2906,
11.296790,-1.9042,0.9982,1.8022,-0.9174,-0.0421,1.2119,3.0568,4.5042,1.2906,
11.316718,-2.2048,0.8578,1.6868,-0.9174,-0.0421,1.2119,3.0568,4.5042,1.2906,
11.337686,-1.6986,0.3700,1.2147,-0.9174,-0.0421,1.2119,3.0568,4.5042,1.2906,
11.341933,-1.6986,0.3700,1.2147,-0.9174,-0.0421,1.2119,7.5054,9.3977,7.9824,
11.351429,-1.6986,0.3700,1.2147,-5.6457,-0.1203,6.7805,7.5054,9.3977,7.9824,
11.356553,-0.9031,0.0116,0.7280,-5.6457,-0.1203,6.7805,7.5054,9.3977,7.9824,
11.376801,-0.3262,-0.1244,0.4958,-5.6457,-0.1203,6.7805,7.5054,9.3977,7.9824,
11.396480,0.3810,-0.2637,0.5298,-5.6457,-0.1203,6.7805,7.5054,9.3977,7.9824,
11.406824,0.3810,-0.2637,0.5298,-5.6457,-0.1203,6.7805,4.0992,5.6835,10.0465,
11.431340,0.8789,-0.3066,0.3251,-5.6457,-0.1203,6.7805,4.0992,5.6835,10.0465,
11.433952,0.8789,-0.3066,0.3251,-16.7060,-4.1501,11.8815,4.0992,5.6835,10.0465,
11.437504,1.1253,-0.3179,0.2196,-16.7060,-4.1501,11.8815,4.0992,5.6835,10.0465,
11.456536,1.3180,-0.3581,0.2321,-16.7060,-4.1501,11.8815,4.0992,5.6835,10.0465,
11.471645,1.3180,-0.3581,0.2321,-16.7060,-4.1501,11.8815,0.0864,1.3552,5.2512,
11.476691,1.5247,-0.4327,0.3854,-16.7060,-4.1501,11.8815,0.0864,1.3552,5.2512,
11.493366,1.5247,-0.4327,0.3854,-2.4871,-10.1961,4.2407,0.0864,1.3552,5.2512,
11.496248,1.6691,-0.4827,0.4617,-2.4871,-10.1961,4.2407,0.0864,1.3552,5.2512,
11.517492,1.8974,-0.5627,0.3911,-2.4871,-10.1961,4.2407,0.0864,1.3552,5.2512,
11.536865,2.3675,-0.6827,-0.0152,-2.4871,-10.1961,4.2407,0.0864,1.3552,5.2512,
11.539467,2.3675,-0.6827,-0.0152,-2.4871,-10.1961,4.2407,-0.6581,-0.7810,-0.6217,
11.546613,2.3675,-0.6827,-0.0152,6.3670,-10.0715,2.2059,-0.6581,-0.7810,-0.6217,
11.556562,2.9252,-1.0183,-0.3718,6.3670,-10.0715,2.2059,-0.6581,-0.7810,-0.6217,
11.576576,2.6462,-1.8456,-0.3895,6.3670,-10.0715,2.2059,-0.6581,-0.7810,-0.6217,
11.596647,1.1051,-3.1442,0.1488,6.3670,-10.0715,2.2059,-0.6581,-0.7810,-0.6217,
11.602770,1.1051,-3.1442,0.1488,6.3670,-10.0715,2.2059,-7.9046,-6.3112,-12.5888,
11.612691,1.1051,-3.1442,0.1488,14.9439,-13.3871,1.2066,-7.9046,-6.3112,-12.5888,
11.630223,-0.3685,-3.8533,1.0990,14.9439,-13.3871,1.2066,-7.9046,-6.3112,-12.5888,
11.636527,-1.1257,-3.5212,2.4027,14.9439,-13.3871,1.2066,-7.9046,-6.3112,-12.5888,
11.657008,-1.5992,-2.4874,3.3600,14.9439,-13.3871,1.2066,-7.9046,-6.3112,-12.5888,
11.669412,-1.5992,-2.4874,3.3600,14.9439,-13.3871,1.2066,-15.2197,-8.6304,-15.1467,
11.677310,-2.2618,-0.9827,4.1110,14.9439,-13.3871,1.2066,-15.2197,-8.6304,-15.1467,
11.696973,-2.2618,-0.9827,4.1110,15.7908,-32.4340,-4.3346,-15.2197,-8.6304,-15.1467,
11.698996,-2.8647,-0.3304,3.4466,15.7908,-32.4340,-4.3346,-15.2197,-8.6304,-15.1467,
11.716062,-1.7388,-0.6070,1.8739,15.7908,-32.4340,-4.3346,-15.2197,-8.6304,-15.1467,
11.732637,-1.7388,-0.6070,1.8739,15.7908,-32.4340,-4.3346,-0.1454,1.9822,-0.2593,
11.743661,-0.4946,-0.6647,1.7445,15.7908,-32.4340,-4.3346,-0.1454,1.9822,-0.2593,
11.745396,-0.4946,-0.6647,1.7445,-15.2201,-23.6078,21.9977,-0.1454,1.9822,-0.2593,
11.757860,0.2370,-0.4155,1.8357,-15.2201,-23.6078,21.9977,-0.1454,1.9822,-0.2593,
11.776233,0.1593,-0.1400,1.4874,-15.2201,-23.6078,21.9977,-0.1454,1.9822,-0.2593,
11.797008,-0.3952,0.1496,1.1213,-15.2201,-23.6078,21.9977,-0.1454,1.9822,-0.2593,
11.799168,-0.3952,0.1496,1.1213,-15.2201,-23.6078,21.9977,0.0870,-1.4592,-0.6452,
11.806800,-0.3952,0.1496,1.1213,-12.5969,-6.0589,13.9363,0.0870,-1.4592,-0.6452,
11.824426,-0.7346,0.3781,0.9668,-12.5969,-6.0589,13.9363,0.0870,-1.4592,-0.6452,
11.842027,-0.5668,0.3259,0.9203,-12.5969,-6.0589,13.9363,0.0870,-1.4592,-0.6452,
11.856378,-0.2320,0.1709,0.9095,-12.5969,-6.0589,13.9363,0.0870,-1.4592,-0.6452,
11.862133,-0.2320,0.1709,0.9095,-12.5969,-6.0589,13.9363,0.7528,-0.3712,0.0637,
11.871826,-0.2320,0.1709,0.9095,-0.0768,-0.6888,4.2343,0.7528,-0.3712,0.0637,
11.876931,-0.0313,0.0798,0.9139,-0.0768,-0.6888,4.2343,0.7528,-0.3712,0.0637,
11.896547,-0.0181,0.0850,0.8771,-0.0768,-0.6888,4.2343,0.7528,-0.3712,0.0637,
11.916869,-0.1369,0.1304,0.8473,-0.0768,-0.6888,4.2343,0.7528,-0.3712,0.0637,
11.927076,-0.1369,0.1304,0.8473,-0.0768,-0.6888,4.2343,0.2322,-0.4350,-0.0434,
11.939614,-0.2290,0.1823,0.8659,-0.0768,-0.6888,4.2343,0.2322,-0.4350,-0.0434,
11.942166,-0.2290,0.1823,0.8659,-2.3195,1.2331,-0.1362,0.2322,-0.4350,-0.0434,
11.956454,-0.2291,0.1782,0.9001,-2.3195,1.2331,-0.1362,0.2322,-0.4350,-0.0434,
11.976969,-0.1965,0.1483,0.9634,-2.3195,1.2331,-0.1362,0.2322,-0.4350,-0.0434,
11.991855,-0.1965,0.1483,0.9634,-2.3195,1.2331,-0.1362,0.2547,0.2452,0.1240,
11.996098,-0.1997,0.1308,1.0336,-2.3195,1.2331,-0.1362,0.2547,0.2452,0.1240,
12.002091,-0.1997,0.1308,1.0336,-0.1848,0.1767,-0.6781,0.2547,0.2452,0.1240,
12.018044,-0.1253,0.0800,0.9929,-0.1848,0.1767,-0.6781,0.2547,0.2452,0.1240,
12.037198,-0.1183,0.0907,0.9292,-0.1848,0.1767,-0.6781,0.2547,0.2452,0.1240,
12.056473,-0.1694,0.1310,0.9725,-0.1848,0.1767,-0.6781,0.2547,0.2452,0.1240,
12.058303,-0.1694,0.1310,0.9725,-0.1848,0.1767,-0.6781,0.0294,-0.3516,0.0428,
12.068129,-0.1694,0.1310,0.9725,-0.8756,0.1935,0.3709,0.0294,-0.3516,0.0428,
12.077215,-0.1551,0.1309,0.9982,-0.8756,0.1935,0.3709,0.0294,-0.3516,0.0428,
12.096957,-0.1056,0.1145,1.0006,-0.8756,0.1935,0.3709,0.0294,-0.3516,0.0428,
12.119029,-0.0890,0.1016,0.9566,-0.8756,0.1935,0.3709,0.0294,-0.3516,0.0428,
12.122268,-0.0890,0.1016,0.9566,-0.8756,0.1935,0.3709,0.2208,-0.0444,0.0797,
12.134842,-0.0890,0.1016,0.9566,-0.4545,-0.2412,0.2764,0.2208,-0.0444,0.0797,
12.138557,-0.1121,0.1192,0.9408,-0.4545,-0.2412,0.2764,0.2208,-0.0444,0.0797,
12.157080,-0.1449,0.1401,0.9923,-0.4545,-0.2412,0.2764,0.2208,-0.0444,0.0797,
12.177204,-0.1805,0.1565,1.0435,-0.4545,-0.2412,0.2764,0.2208,-0.0444,0.0797,
12.186986,-0.1805,0.1565,1.0435,-0.4545,-0.2412,0.2764,0.0108,-0.1397,-0.0502,
12.196565,-0.1805,0.1565,1.0435,-0.1583,-0.2593,0.3547,0.0108,-0.1397,-0.0502,
12.198222,-0.1628,0.1400,1.0488,-0.1583,-0.2593,0.3547,0.0108,-0.1397,-0.0502,
12.216054,-0.1467,0.1240,1.0466,-0.1583,-0.2593,0.3547,0.0108,-0.1397,-0.0502,
12.237160,-0.1387,0.1150,1.0386,-0.1583,-0.2593,0.3547,0.0108,-0.1397,-0.0502,
12.252816,-0.1387,0.1150,1.0386,-0.1583,-0.2593,0.3547,0.1557,-0.0821,0.0288,
12.258342,-0.1654,0.1390,1.0602,-0.1583,-0.2593,0.3547,0.1557,-0.0821,0.0288,
12.263042,-0.1654,0.1390,1.0602,-0.7201,0.0045,0.8359,0.1557,-0.0821,0.0288,
12.276374,-0.1919,0.1653,1.0737,-0.7201,0.0045,0.8359,0.1557,-0.0821,0.0288,
12.295943,-0.1676,0.1607,1.0171,-0.7201,0.0045,0.8359,0.1557,-0.0821,0.0288,
12.315865,-0.1487,0.1544,0.9883,-0.7201,0.0045,0.8359,0.1557,-0.0821,0.0288,
12.318453,-0.1487,0.1544,0.9883,-0.7201,0.0045,0.8359,0.3638,0.0408,0.0806,
12.326098,-0.1487,0.1544,0.9883,-0.6842,-0.2573,1.1030,0.3638,0.0408,0.0806,
12.337134,-0.1363,0.1649,1.0135,-0.6842,-0.2573,1.1030,0.3638,0.0408,0.0806,
12.356938,-0.1300,0.1780,0.9923,-0.6842,-0.2573,1.1030,0.3638,0.0408,0.0806,
12.377188,-0.1528,0.1994,0.9820,-0.6842,-0.2573,1.1030,0.3638,0.0408,0.0806,
12.385963,-0.1528,0.1994,0.9820,-0.6842,-0.2573,1.1030,0.3363,-0.0953,0.0271,
12.392025,-0.1528,0.1994,0.9820,-0.7847,-0.1534,0.8499,0.3363,-0.0953,0.0271,
12.396694,-0.1454,0.2025,0.9495,-0.7847,-0.1534,0.8499,0.3363,-0.0953,0.0271,
12.415932,-0.1357,0.1986,0.9274,-0.7847,-0.1534,0.8499,0.3363,-0.0953,0.0271,
12.436774,-0.1333,0.2146,0.9450,-0.7847,-0.1534,0.8499,0.3363,-0.0953,0.0271,
12.446497,-0.1333,0.2146,0.9450,-0.7847,-0.1534,0.8499,0.4830,0.1434,0.1500,
12.457988,-0.1150,0.2157,0.9454,-0.7847,-0.1534,0.8499,0.4830,0.1434,0.1500,
12.460773,-0.1150,0.2157,0.9454,-0.5861,-0.1136,0.5039,0.4830,0.1434,0.1500,
12.476080,-0.1199,0.2324,0.9633,-0.5861,-0.1136,0.5039,0.4830,0.1434,0.1500,
12.496369,-0.1828,0.2679,0.9948,-0.5861,-0.1136,0.5039,0.4830,0.1434,0.1500,
12.512436,-0.1828,0.2679,0.9948,-0.5861,-0.1136,0.5039,0.6989,0.3813,0.2321,
12.518122,-0.2045,0.2847,0.9885,-0.5861,-0.1136,0.5039,0.6989,0.3813,0.2321,
12.521757,-0.2045,0.2847,0.9885,-0.3847,-0.2032,0.1438,0.6989,0.3813,0.2321,
12.537052,-0.1855,0.2866,0.9357,-0.3847,-0.2032,0.1438,0.6989,0.3813,0.2321,
12.556380,-0.1170,0.2761,0.8324,-0.3847,-0.2032,0.1438,0.6989,0.3813,0.2321,
12.576930,-0.1128,0.3044,0.8221,-0.3847,-0.2032,0.1438,0.6989,0.3813,0.2321,
12.579243,-0.1128,0.3044,0.8221,-0.3847,-0.2032,0.1438,0.9396,0.6130,0.4068,
12.588055,-0.1128,0.3044,0.8221,-0.5235,-0.2042,0.6986,0.9396,0.6130,0.4068,
12.596773,-0.1622,0.3459,0.8847,-0.5235,-0.2042,0.6986,0.9396,0.6130,0.4068,
12.616111,-0.2428,0.3728,0.9491,-0.5235,-0.2042,0.6986,0.9396,0.6130,0.4068,
12.637294,-0.2662,0.4033,0.9956,-0.5235,-0.2042,0.6986,0.9396,0.6130,0.4068,
12.641755,-0.2662,0.4033,0.9956,-0.5235,-0.2042,0.6986,0.7017,0.4159,0.2536,
12.652899,-0.2662,0.4033,0.9956,-0.0040,-0.2885,-0.2891,0.7017,0.4159,0.2536,
12.662719,-0.2059,0.3865,0.8590,-0.0040,-0.2885,-0.2891,0.7017,0.4159,0.2536,
12.676768,-0.1487,0.3735,0.7225,-0.0040,-0.2885,-0.2891,0.7017,0.4159,0.2536,
12.696938,-0.1678,0.4114,0.7457,-0.0040,-0.2885,-0.2891,0.7017,0.4159,0.2536,
12.707222,-0.1678,0.4114,0.7457,-0.0040,-0.2885,-0.2891,0.4330,0.1742,0.1958,
12.718615,-0.2290,0.4393,0.8500,-0.0040,-0.2885,-0.2891,0.4330,0.1742,0.1958,
12.720992,-0.2290,0.4393,0.8500,-0.6573,-0.0168,0.7609,0.4330,0.1742,0.1958,
12.736770,-0.3162,0.4610,0.9608,-0.6573,-0.0168,0.7609,0.4330,0.1742,0.1958,
12.756780,-0.3416,0.4691,0.9590,-0.6573,-0.0168,0.7609,0.4330,0.1742,0.1958,
12.772121,-0.3416,0.4691,0.9590,-0.6573,-0.0168,0.7609,0.3095,0.3871,0.2947,
12.775719,-0.3365,0.4564,0.9703,-0.6573,-0.0168,0.7609,0.3095,0.3871,0.2947,
12.783400,-0.3365,0.4564,0.9703,-0.2582,0.1777,-0.8523,0.3095,0.3871,0.2947,
12.796095,-0.2661,0.4241,0.9522,-0.2582,0.1777,-0.8523,0.3095,0.3871,0.2947,
12.815823,-0.2366,0.4267,0.9065,-0.2582,0.1777,-0.8523,0.3095,0.3871,0.2947,
12.837077,-0.4364,0.4928,0.8747,-0.2582,0.1777,-0.8523,0.3095,0.3871,0.2947,
12.840196,-0.4364,0.4928,0.8747,-0.2582,0.1777,-0.8523,0.8953,1.0332,0.7526,
12.846697,-0.4364,0.4928,0.8747,-1.3717,0.2946,1.2304,0.8953,1.0332,0.7526,
12.856984,-1.0319,0.7030,1.0712,-1.3717,0.2946,1.2304,0.8953,1.0332,0.7526,
12.875840,-1.8416,0.8750,1.7720,-1.3717,0.2946,1.2304,0.8953,1.0332,0.7526,
12.896082,-2.3339,0.5798,2.5656,-1.3717,0.2946,1.2304,0.8953,1.0332,0.7526,
12.901178,-2.3339,0.5798,2.5656,-1.3717,0.2946,1.2304,4.4454,6.3617,5.2429,
12.912166,-2.3339,0.5798,2.5656,-1.6415,-0.1128,1.2014,4.4454,6.3617,5.2429,
12.918546,-2.0346,0.0438,2.2196,-1.6415,-0.1128,1.2014,4.4454,6.3617,5.2429,
12.939843,-0.8048,-0.2742,1.2253,-1.6415,-0.1128,1.2014,4.4454,6.3617,5.2429,
12.956768,-0.2458,-0.1725,0.8571,-1.6415,-0.1128,1.2014,4.4454,6.3617,5.2429,
12.967928,-0.2458,-0.1725,0.8571,-1.6415,-0.1128,1.2014,6.5707,5.7964,10.7782,
12.976834,0.2119,-0.2847,0.4565,-1.6415,-0.1128,1.2014,6.5707,5.7964,10.7782,
12.979685,0.2119,-0.2847,0.4565,-17.0396,-2.5125,15.9603,6.5707,5.7964,10.7782,
12.997468,0.7471,-0.4066,0.2968,-17.0396,-2.5125,15.9603,6.5707,5.7964,10.7782,
13.015709,1.1450,-0.4209,0.1932,-17.0396,-2.5125,15.9603,6.5707,5.7964,10.7782,
13.030864,1.1450,-0.4209,0.1932,-17.0396,-2.5125,15.9603,3.1303,2.2240,7.4264,
13.044660,1.4836,-0.4579,0.1244,-17.0396,-2.5125,15.9603,3.1303,2.2240,7.4264,
13.047360,1.4836,-0.4579,0.1244,-6.7022,-11.1558,8.1113,3.1303,2.2240,7.4264,
13.060816,1.6657,-0.4070,0.0264,-6.7022,-11.1558,8.1113,3.1303,2.2240,7.4264,
13.076449,1.6173,-0.3099,-0.0795,-6.7022,-11.1558,8.1113,3.1303,2.2240,7.4264,
13.095401,1.3713,-0.1961,-0.1815,-6.7022,-11.1558,8.1113,3.1303,2.2240,7.4264,
13.097601,1.3713,-0.1961,-0.1815,-6.7022,-11.1558,8.1113,1.2119,0.6947,2.2374,
13.106001,1.3713,-0.1961,-0.1815,5.1458,-11.0379,1.7392,1.2119,0.6947,2.2374,
13.117695,1.1414,-0.0822,-0.1199,5.1458,-11.0379,1.7392,1.2119,0.6947,2.2374,
13.135862,1.3387,-0.1914,-0.1599,5.1458,-11.0379,1.7392,1.2119,0.6947,2.2374,
13.156939,2.7752,-0.9324,-0.6581,5.1458,-11.0379,1.7392,1.2119,0.6947,2.2374,
13.161123,2.7752,-0.9324,-0.6581,5.1458,-11.0379,1.7392,-0.1475,-0.0707,-1.8335,
13.171208,2.7752,-0.9324,-0.6581,7.6768,-8.7481,-0.9582,-0.1475,-0.0707,-1.8335,
13.176429,4.9118,-2.2988,-0.8295,7.6768,-8.7481,-0.9582,-0.1475,-0.0707,-1.8335,
13.195806,3.4879,-4.4151,0.6415,7.6768,-8.7481,-0.9582,-0.1475,-0.0707,-1.8335,
13.215512,-0.8851,-6.0966,2.3624,7.6768,-8.7481,-0.9582,-0.1475,-0.0707,-1.8335,
13.225711,-0.8851,-6.0966,2.3624,7.6768,-8.7481,-0.9582,-8.2651,-6.3765,-19.7708,
13.253289,-4.2701,-4.4233,3.5185,7.6768,-8.7481,-0.9582,-8.2651,-6.3765,-19.7708,
13.255349,-4.2701,-4.4233,3.5185,19.6952,-15.8151,-4.9882,-8.2651,-6.3765,-19.7708,
13.269189,-5.4914,-0.5647,4.6215,19.6952,-15.8151,-4.9882,-8.2651,-6.3765,-19.7708,
13.275244,-4.1055,0.8701,3.1550,19.6952,-15.8151,-4.9882,-8.2651,-6.3765,-19.7708,
13.290564,-4.1055,0.8701,3.1550,19.6952,-15.8151,-4.9882,-4.4527,-5.0798,-8.3190,
13.295912,-1.8765,-0.3364,0.5649,19.6952,-15.8151,-4.9882,-4.4527,-5.0798,-8.3190,
13.307528,-1.8765,-0.3364,0.5649,2.7847,-51.4123,13.5237,-4.4527,-5.0798,-8.3190,
13.315387,-0.6151,-0.5152,1.8282,2.7847,-51.4123,13.5237,-4.4527,-5.0798,-8.3190,
13.336040,-0.3635,-0.0621,1.7710,2.7847,-51.4123,13.5237,-4.4527,-5.0798,-8.3190,
13.356381,-0.3635,-0.0621,1.7710,2.7847,-51.4123,13.5237,0.2351,0.4879,-0.9828,
13.358309,-1.0027,0.5124,1.2143,2.7847,-51.4123,13.5237,0.2351,0.4879,-0.9828,
13.366560,-1.0027,0.5124,1.2143,-30.0760,-3.6045,20.0188,0.2351,0.4879,-0.9828,
13.376150,-1.4158,0.8799,0.8088,-30.0760,-3.6045,20.0188,0.2351,0.4879,-0.9828,
13.395607,-1.1046,0.7869,0.7231,-30.0760,-3.6045,20.0188,0.2351,0.4879,-0.9828,
13.415623,-0.6784,0.5303,0.7613,-30.0760,-3.6045,20.0188,0.2351,0.4879,-0.9828,
13.421203,-0.6784,0.5303,0.7613,-30.0760,-3.6045,20.0188,-0.0739,-1.1489,-0.1292,
13.435822,-0.6784,0.5303,0.7613,-2.8701,-0.6255,7.5731,-0.0739,-1.1489,-0.1292,
13.439239,-0.4449,0.3689,0.8563,-2.8701,-0.6255,7.5731,-0.0739,-1.1489,-0.1292,
13.467052,-0.3570,0.3044,0.8183,-2.8701,-0.6255,7.5731,-0.0739,-1.1489,-0.1292,
13.475766,-0.4543,0.3349,0.7679,-2.8701,-0.6255,7.5731,-0.0739,-1.1489,-0.1292,
13.485523,-0.4543,0.3349,0.7679,-2.8701,-0.6255,7.5731,-0.2211,-1.0601,0.1222,
13.495578,-0.5425,0.3515,0.7582,-2.8701,-0.6255,7.5731,-0.2211,-1.0601,0.1222,
13.497549,-0.5425,0.3515,0.7582,-4.0973,3.7378,0.2566,-0.2211,-1.0601,0.1222,
13.515547,-0.4394,0.2898,0.8402,-4.0973,3.7378,0.2566,-0.2211,-1.0601,0.1222,
13.538221,-0.3515,0.2511,0.8746,-4.0973,3.7378,0.2566,-0.2211,-1.0601,0.1222,
13.551936,-0.3515,0.2511,0.8746,-4.0973,3.7378,0.2566,-0.1201,-0.6343,0.1041,
13.556457,-0.3468,0.2410,0.8513,-4.0973,3.7378,0.2566,-0.1201,-0.6343,0.1041,
13.562074,-0.3468,0.2410,0.8513,-0.6557,1.0205,-0.0156,-0.1201,-0.6343,0.1041,
13.575786,-0.3773,0.2619,0.8572,-0.6557,1.0205,-0.0156,-0.1201,-0.6343,0.1041,
13.595458,-0.4472,0.2971,0.8137,-0.6557,1.0205,-0.0156,-0.1201,-0.6343,0.1041,
13.617313,-0.4770,0.3149,0.8021,-0.6557,1.0205,-0.0156,-0.1201,-0.6343,0.1041,
13.619664,-0.4770,0.3149,0.8021,-0.6557,1.0205,-0.0156,-0.1063,-0.7444,-0.2160,
13.625412,-0.4770,0.3149,0.8021,-0.1370,0.2522,0.5840,-0.1063,-0.7444,-0.2160,
13.635378,-0.4581,0.3172,0.8456,-0.1370,0.2522,0.5840,-0.1063,-0.7444,-0.2160,
13.656520,-0.4042,0.2970,0.9168,-0.1370,0.2522,0.5840,-0.1063,-0.7444,-0.2160,
13.675873,-0.3609,0.2795,0.9574,-0.1370,0.2522,0.5840,-0.1063,-0.7444,-0.2160,
13.682580,-0.3609,0.2795,0.9574,-0.1370,0.2522,0.5840,0.0791,-0.3186,0.0102,
13.691186,-0.3609,0.2795,0.9574,-1.2264,0.7996,0.0159,0.0791,-0.3186,0.0102,
13.695650,-0.3779,0.2882,0.8638,-1.2264,0.7996,0.0159,0.0791,-0.3186,0.0102,
13.715377,-0.4026,0.2973,0.7753,-1.2264,0.7996,0.0159,0.0791,-0.3186,0.0102,
13.736099,-0.4158,0.3218,0.8309,-1.2264,0.7996,0.0159,0.0791,-0.3186,0.0102,
13.746565,-0.4158,0.3218,0.8309,-1.2264,0.7996,0.0159,0.1078,-0.4085,0.0138,
13.756372,-0.4102,0.3194,0.8983,-1.2264,0.7996,0.0159,0.1078,-0.4085,0.0138,
13.759574,-0.4102,0.3194,0.8983,-0.7505,0.5625,0.8987,0.1078,-0.4085,0.0138,
13.775623,-0.3935,0.3059,0.9699,-0.7505,0.5625,0.8987,0.1078,-0.4085,0.0138,
13.795937,-0.4682,0.3161,1.0674,-0.7505,0.5625,0.8987,0.1078,-0.4085,0.0138,
13.811557,-0.4682,0.3161,1.0674,-0.7505,0.5625,0.8987,0.2824,-0.1151,0.2340,
13.817145,-0.5540,0.3432,1.1823,-0.7505,0.5625,0.8987,0.2824,-0.1151,0.2340,
13.821405,-0.5540,0.3432,1.1823,-1.1600,0.7515,0.0298,0.2824,-0.1151,0.2340,
13.841788,-0.7311,0.4025,1.0699,-1.1600,0.7515,0.0298,0.2824,-0.1151,0.2340,
13.856885,-0.9950,0.5419,1.0981,-1.1600,0.7515,0.0298,0.2824,-0.1151,0.2340,
13.876685,-0.9950,0.5419,1.0981,-1.1600,0.7515,0.0298,1.9512,2.0845,2.1343,
13.880044,-1.3473,0.6574,1.2598,-1.1600,0.7515,0.0298,1.9512,2.0845,2.1343,
13.887274,-1.3473,0.6574,1.2598,-1.8711,0.4912,2.4857,1.9512,2.0845,2.1343,
13.896715,-1.5348,0.6408,1.5179,-1.8711,0.4912,2.4857,1.9512,2.0845,2.1343,
13.915986,-1.4251,0.4948,1.7999,-1.8711,0.4912,2.4857,1.9512,2.0845,2.1343,
13.936339,-1.2795,0.3492,1.5158,-1.8711,0.4912,2.4857,1.9512,2.0845,2.1343,
13.941066,-1.2795,0.3492,1.5158,-1.8711,0.4912,2.4857,5.6146,6.6257,7.2130,
13.951449,-1.2795,0.3492,1.5158,-7.3582,0.9622,4.7838,5.6146,6.6257,7.2130,
13.956032,-1.3065,0.2726,0.9201,-7.3582,0.9622,4.7838,5.6146,6.6257,7.2130,
13.975534,-0.8850,0.0704,0.8303,-7.3582,0.9622,4.7838,5.6146,6.6257,7.2130,
14.002600,-0.4029,-0.1366,0.8210,-7.3582,0.9622,4.7838,5.6146,6.6257,7.2130,
14.005068,-0.4029,-0.1366,0.8210,-7.3582,0.9622,4.7838,5.4271,6.2663,10.0322,
14.030510,0.1717,-0.3490,0.7418,-7.3582,0.9622,4.7838,5.4271,6.2663,10.0322,
14.033195,0.1717,-0.3490,0.7418,-10.9629,-4.1645,11.7074,5.4271,6.2663,10.0322,
14.036696,0.7007,-0.4644,0.6372,-10.9629,-4.1645,11.7074,5.4271,6.2663,10.0322,
14.055150,1.1899,-0.5251,0.4786,-10.9629,-4.1645,11.7074,5.4271,6.2663,10.0322,
14.070623,1.1899,-0.5251,0.4786,-10.9629,-4.1645,11.7074,3.1976,3.5813,7.4922,
14.075816,1.6282,-0.5513,0.3840,-10.9629,-4.1645,11.7074,3.1976,3.5813,7.4922,
14.090889,1.6282,-0.5513,0.3840,-6.8606,-9.6314,7.7757,3.1976,3.5813,7.4922,
14.095732,1.9204,-0.6389,0.2703,-6.8606,-9.6314,7.7757,3.1976,3.5813,7.4922,
14.115104,2.5247,-1.0000,-0.1678,-6.8606,-9.6314,7.7757,3.1976,3.5813,7.4922,
14.135661,2.5247,-1.0000,-0.1678,-6.8606,-9.6314,7.7757,-0.4026,-0.3752,-1.0307,
14.137924,3.7510,-1.8131,-0.5174,-6.8606,-9.6314,7.7757,-0.4026,-0.3752,-1.0307,
14.145587,3.7510,-1.8131,-0.5174,6.1263,-11.7023,5.1846,-0.4026,-0.3752,-1.0307,
14.159286,4.3878,-3.0799,0.1746,6.1263,-11.7023,5.1846,-0.4026,-0.3752,-1.0307,
14.175136,2.3726,-5.0423,1.7256,6.1263,-11.7023,5.1846,-0.4026,-0.3752,-1.0307,
14.195535,-1.3264,-6.2025,3.5959,6.1263,-11.7023,5.1846,-0.4026,-0.3752,-1.0307,
14.201917,-1.3264,-6.2025,3.5959,6.1263,-11.7023,5.1846,-8.8631,-8.5803,-20.5265,
14.210604,-1.3264,-6.2025,3.5959,26.0976,-21.7421,-1.6818,-8.8631,-8.5803,-20.5265,
14.224767,-5.1662,-4.3239,5.2561,26.0976,-21.7421,-1.6818,-8.8631,-8.5803,-20.5265,
14.235905,-6.1561,0.0797,4.5879,26.0976,-21.7421,-1.6818,-8.8631,-8.5803,-20.5265,
14.255194,-4.1338,1.0979,1.6730,26.0976,-21.7421,-1.6818,-8.8631,-8.5803,-20.5265,
14.266057,-4.1338,1.0979,1.6730,26.0976,-21.7421,-1.6818,-6.2533,-12.7727,-10.7309,
14.275682,-4.1338,1.0979,1.6730,3.1905,-53.0459,22.3712,-6.2533,-12.7727,-10.7309,
14.278498,-2.0152,-0.3622,0.0364,3.1905,-53.0459,22.3712,-6.2533,-12.7727,-10.7309,
14.295209,-0.9562,-0.7448,2.7174,3.1905,-53.0459,22.3712,-6.2533,-12.7727,-10.7309,
14.322236,0.2315,-0.6481,2.9986,3.1905,-53.0459,22.3712,-6.2533,-12.7727,-10.7309,
14.332837,0.2315,-0.6481,2.9986,3.1905,-53.0459,22.3712,1.6128,6.2718,1.8398,
14.340831,-0.4413,-0.0542,1.4462,3.1905,-53.0459,22.3712,1.6128,6.2718,1.8398,
14.343827,-0.4413,-0.0542,1.4462,-39.0647,0.0294,15.8225,1.6128,6.2718,1.8398,
14.359937,-1.2653,0.6009,1.2730,-39.0647,0.0294,15.8225,1.6128,6.2718,1.8398,
14.375084,-1.0535,0.5179,1.1563,-39.0647,0.0294,15.8225,1.6128,6.2718,1.8398,
14.395841,-0.4793,0.1968,0.9861,-39.0647,0.0294,15.8225,1.6128,6.2718,1.8398,
14.398018,-0.4793,0.1968,0.9861,-39.0647,0.0294,15.8225,-0.8015,-3.7335,-0.8162,
14.405813,-0.4793,0.1968,0.9861,-0.9847,-4.4025,14.8355,-0.8015,-3.7335,-0.8162,
14.421968,-0.1823,0.0715,1.0738,-0.9847,-4.4025,14.8355,-0.8015,-3.7335,-0.8162,
14.435417,-0.0714,0.0409,0.9934,-0.9847,-4.4025,14.8355,-0.8015,-3.7335,-0.8162,
14.455792,-0.1885,0.1433,0.7737,-0.9847,-4.4025,14.8355,-0.8015,-3.7335,-0.8162,
14.462111,-0.1885,0.1433,0.7737,-0.9847,-4.4025,14.8355,1.2480,0.1620,0.4344,
14.471804,-0.1885,0.1433,0.7737,-5.1619,3.1607,3.0364,1.2480,0.1620,0.4344,
14.475868,-0.3752,0.2876,0.6843,-5.1619,3.1607,3.0364,1.2480,0.1620,0.4344,
14.495975,-0.3872,0.3320,0.6992,-5.1619,3.1607,3.0364,1.2480,0.1620,0.4344,
14.515984,-0.2564,0.2573,0.8293,-5.1619,3.1607,3.0364,1.2480,0.1620,0.4344,
14.527260,-0.2564,0.2573,0.8293,-5.1619,3.1607,3.0364,-0.1203,-1.0537,-0.0561,
14.535755,-0.1544,0.1735,0.8873,-5.1619,3.1607,3.0364,-0.1203,-1.0537,-0.0561,
14.537621,-0.1544,0.1735,0.8873,0.4117,0.3402,0.4204,-0.1203,-1.0537,-0.0561,
14.556547,-0.1480,0.1310,0.9148,0.4117,0.3402,0.4204,-0.1203,-1.0537,-0.0561,
14.577294,-0.2487,0.1519,0.9242,0.4117,0.3402,0.4204,-0.1203,-1.0537,-0.0561,
14.593017,-0.2487,0.1519,0.9242,0.4117,0.3402,0.4204,0.0850,-0.0439,-0.1638,
14.596117,-0.3732,0.2148,0.9552,0.4117,0.3402,0.4204,0.0850,-0.0439,-0.1638,
14.603630,-0.3732,0.2148,0.9552,-0.5928,1.4521,-0.3333,0.0850,-0.0439,-0.1638,
14.615302,-0.4242,0.2569,1.0655,-0.5928,1.4521,-0.3333,0.0850,-0.0439,-0.1638,
14.635927,-0.4031,0.2474,1.0833,-0.5928,1.4521,-0.3333,0.0850,-0.0439,-0.1638,
14.655272,-0.3519,0.2225,1.0712,-0.5928,1.4521,-0.3333,0.0850,-0.0439,-0.1638,
14.658042,-0.3519,0.2225,1.0712,-0.5928,1.4521,-0.3333,0.0575,-0.3363,-0.0482,
14.665275,-0.3519,0.2225,1.0712,-0.7409,0.7377,0.9980,0.0575,-0.3363,-0.0482,
14.675824,-0.2873,0.2010,1.0147,-0.7409,0.7377,0.9980,0.0575,-0.3363,-0.0482,
14.695234,-0.2266,0.1970,0.9307,-0.7409,0.7377,0.9980,0.0575,-0.3363,-0.0482,
14.716520,-0.2280,0.2167,0.8942,-0.7409,0.7377,0.9980,0.0575,-0.3363,-0.0482,
14.722440,-0.2280,0.2167,0.8942,-0.7409,0.7377,0.9980,0.2035,-0.6249,0.0105,
14.731756,-0.2280,0.2167,0.8942,-1.8588,1.1723,2.2449,0.2035,-0.6249,0.0105,
14.735518,-0.2579,0.2418,1.0056,-1.8588,1.1723,2.2449,0.2035,-0.6249,0.0105,
14.754953,-0.3369,0.2388,1.0888,-1.8588,1.1723,2.2449,0.2035,-0.6249,0.0105,
14.774986,-0.4017,0.2579,1.1542,-1.8588,1.1723,2.2449,0.2035,-0.6249,0.0105,
14.784753,-0.4017,0.2579,1.1542,-1.8588,1.1723,2.2449,0.5720,0.1221,-0.0134,
14.795151,-0.4017,0.2579,1.1542,-0.8785,0.8811,0.8808,0.5720,0.1221,-0.0134,
14.796785,-0.5359,0.2623,1.1194,-0.8785,0.8811,0.8808,0.5720,0.1221,-0.0134,
14.815345,-0.8695,0.3389,1.1295,-0.8785,0.8811,0.8808,0.5720,0.1221,-0.0134,
14.841582,-1.4758,0.6070,1.3865,-0.8785,0.8811,0.8808,0.5720,0.1221,-0.0134,
14.851488,-1.4758,0.6070,1.3865,-0.8785,0.8811,0.8808,1.3981,2.2981,1.4921,
14.855840,-1.9664,0.8427,1.6636,-0.8785,0.8811,0.8808,1.3981,2.2981,1.4921,
14.862477,-1.9664,0.8427,1.6636,-2.3063,0.8436,2.6845,1.3981,2.2981,1.4921,
14.875381,-2.1502,0.7550,1.8321,-2.3063,0.8436,2.6845,1.3981,2.2981,1.4921,
14.895296,-2.3023,0.5752,1.8251,-2.3063,0.8436,2.6845,1.3981,2.2981,1.4921,
14.916268,-2.3023,0.5752,1.8251,-2.3063,0.8436,2.6845,7.1156,12.4083,9.7492,
14.919858,-2.0903,0.0936,1.4600,-2.3063,0.8436,2.6845,7.1156,12.4083,9.7492,
14.925838,-2.0903,0.0936,1.4600,-11.0136,2.6461,6.6578,7.1156,12.4083,9.7492,
14.949496,-1.1381,-0.6676,0.9935,-11.0136,2.6461,6.6578,7.1156,12.4083,9.7492,
14.955095,-0.3207,-0.8257,0.9327,-11.0136,2.6461,6.6578,7.1156,12.4083,9.7492,
14.975116,0.2771,-0.8171,1.0798,-11.0136,2.6461,6.6578,7.1156,12.4083,9.7492,
14.981591,0.2771,-0.8171,1.0798,-11.0136,2.6461,6.6578,3.2478,9.7872,10.9213,
14.990977,0.2771,-0.8171,1.0798,-17.2569,-5.1874,14.3522,3.2478,9.7872,10.9213,
15.006375,1.0571,-0.8465,1.1959,-17.2569,-5.1874,14.3522,3.2478,9.7872,10.9213,
15.014996,1.9521,-0.9448,0.9569,-17.2569,-5.1874,14.3522,3.2478,9.7872,10.9213,
15.035049,3.2652,-1.2611,0.4039,-17.2569,-5.1874,14.3522,3.2478,9.7872,10.9213,
15.044837,3.2652,-1.2611,0.4039,-17.2569,-5.1874,14.3522,-3.4392,-1.5560,0.6981,
15.059863,3.9270,-1.9184,-0.0652,-17.2569,-5.1874,14.3522,-3.4392,-1.5560,0.6981,
15.062324,3.9270,-1.9184,-0.0652,-1.4117,-16.2955,9.9804,-3.4392,-1.5560,0.6981,
15.075309,2.6220,-2.5043,0.7791,-1.4117,-16.2955,9.9804,-3.4392,-1.5560,0.6981,
15.100498,0.4928,-3.1550,1.6711,-1.4117,-16.2955,9.9804,-3.4392,-1.5560,0.6981,
15.111510,0.4928,-3.1550,1.6711,-1.4117,-16.2955,9.9804,-8.9906,-6.9828,-15.9764,
15.129474,-1.8890,-3.1530,2.0674,-1.4117,-16.2955,9.9804,-8.9906,-6.9828,-15.9764,
15.131768,-1.8890,-3.1530,2.0674,27.3975,-20.7580,2.2567,-8.9906,-6.9828,-15.9764,
15.136265,-2.9301,-1.1612,3.1332,27.3975,-20.7580,2.2567,-8.9906,-6.9828,-15.9764,
15.155007,-3.0156,0.2538,3.9933,27.3975,-20.7580,2.2567,-8.9906,-6.9828,-15.9764,
15.175488,-2.4250,-0.2519,2.0725,27.3975,-20.7580,2.2567,-8.9906,-6.9828,-15.9764,
15.178576,-2.4250,-0.2519,2.0725,27.3975,-20.7580,2.2567,-7.1721,-7.3118,-7.8623,
15.190721,-2.4250,-0.2519,2.0725,3.7849,-30.7202,8.2702,-7.1721,-7.3118,-7.8623,
15.197125,-1.2146,-0.5086,1.9903,3.7849,-30.7202,8.2702,-7.1721,-7.3118,-7.8623,
15.214878,-0.6634,-0.1002,2.6048,3.7849,-30.7202,8.2702,-7.1721,-7.3118,-7.8623,
15.235283,-0.5340,0.2765,2.1377,3.7849,-30.7202,8.2702,-7.1721,-7.3118,-7.8623,
15.240561,-0.5340,0.2765,2.1377,3.7849,-30.7202,8.2702,4.1023,5.9009,2.7045,
15.252107,-0.5340,0.2765,2.1377,-23.4106,-2.9645,20.5663,4.1023,5.9009,2.7045,
15.261963,-0.8972,0.3760,0.9618,-23.4106,-2.9645,20.5663,4.1023,5.9009,2.7045,
15.284124,-1.1319,0.6013,0.6345,-23.4106,-2.9645,20.5663,4.1023,5.9009,2.7045,
15.294724,-1.3857,0.8113,0.7412,-23.4106,-2.9645,20.5663,4.1023,5.9009,2.7045,
15.304661,-1.3857,0.8113,0.7412,-23.4106,-2.9645,20.5663,2.8952,0.6453,2.4994,
15.315065,-1.5748,0.9648,1.0174,-23.4106,-2.9645,20.5663,2.8952,0.6453,2.4994,
15.318190,-1.5748,0.9648,1.0174,-3.6800,-1.9616,12.4405,2.8952,0.6453,2.4994,
15.344319,-1.5414,0.7264,0.9971,-3.6800,-1.9616,12.4405,2.8952,0.6453,2.4994,
15.354891,-1.2036,0.2709,0.7202,-3.6800,-1.9616,12.4405,2.8952,0.6453,2.4994,
15.370410,-1.2036,0.2709,0.7202,-3.6800,-1.9616,12.4405,5.5939,9.9874,9.1980,
15.375305,-0.7244,-0.1394,0.8299,-3.6800,-1.9616,12.4405,5.5939,9.9874,9.1980,
15.381656,-0.7244,-0.1394,0.8299,-9.1730,2.3227,2.0917,5.5939,9.9874,9.1980,
15.397305,-0.1513,-0.2310,1.1885,-9.1730,2.3227,2.0917,5.5939,9.9874,9.1980,
15.415091,0.3351,-0.2703,1.3056,-9.1730,2.3227,2.0917,5.5939,9.9874,9.1980,
15.435763,0.9143,-0.3104,1.2432,-9.1730,2.3227,2.0917,5.5939,9.9874,9.1980,
15.438439,0.9143,-0.3104,1.2432,-9.1730,2.3227,2.0917,2.4497,5.5095,8.5904,
15.448093,0.9143,-0.3104,1.2432,-8.9171,-5.8093,6.8141,2.4497,5.5095,8.5904,
15.454901,1.4701,-0.2005,1.0756,-8.9171,-5.8093,6.8141,2.4497,5.5095,8.5904,
15.474816,2.2157,-0.1051,0.6991,-8.9171,-5.8093,6.8141,2.4497,5.5095,8.5904,
15.494813,2.8171,-0.2052,0.2982,-8.9171,-5.8093,6.8141,2.4497,5.5095,8.5904,
15.500907,2.8171,-0.2052,0.2982,-8.9171,-5.8093,6.8141,1.1180,-1.9592,0.6754,
15.514653,2.8171,-0.2052,0.2982,3.3807,-10.7736,11.6382,1.1180,-1.9592,0.6754,
15.520462,2.5071,-0.8191,-0.0531,3.3807,-10.7736,11.6382,1.1180,-1.9592,0.6754,
15.541528,1.1365,-1.6582,0.2653,3.3807,-10.7736,11.6382,1.1180,-1.9592,0.6754,
15.554610,-0.0362,-2.2452,0.8490,3.3807,-10.7736,11.6382,1.1180,-1.9592,0.6754,
15.564434,-0.0362,-2.2452,0.8490,3.3807,-10.7736,11.6382,-10.2726,-13.1237,-13.6835,
15.575067,-0.9207,-2.3424,1.5081,3.3807,-10.7736,11.6382,-10.2726,-13.1237,-13.6835,
15.577772,-0.9207,-2.3424,1.5081,22.5289,-11.0079,4.0987,-10.2726,-13.1237,-13.6835,
15.598362,-1.7843,-1.1203,2.9007,22.5289,-11.0079,4.0987,-10.2726,-13.1237,-13.6835,
15.614781,-2.1922,0.3154,4.2427,22.5289,-11.0079,4.0987,-10.2726,-13.1237,-13.6835,
15.631275,-2.1922,0.3154,4.2427,22.5289,-11.0079,4.0987,-10.2522,-8.1861,-8.5522,
15.635353,-2.1650,-0.0898,2.8457,22.5289,-11.0079,4.0987,-10.2522,-8.1861,-8.5522,
15.640908,-2.1650,-0.0898,2.8457,3.8955,-23.0366,1.0375,-10.2522,-8.1861,-8.5522,
15.657212,-1.4757,-0.4719,1.5309,3.8955,-23.0366,1.0375,-10.2522,-8.1861,-8.5522,
15.674853,-0.9588,-0.3317,1.7892,3.8955,-23.0366,1.0375,-10.2522,-8.1861,-8.5522,
15.695436,-0.9792,0.1451,2.1542,3.8955,-23.0366,1.0375,-10.2522,-8.1861,-8.5522,
15.698541,-0.9792,0.1451,2.1542,3.8955,-23.0366,1.0375,3.1184,5.5867,2.9639,
15.704871,-0.9792,0.1451,2.1542,-19.4873,-2.9337,23.1975,3.1184,5.5867,2.9639,
15.724709,-1.2390,0.4299,1.7811,-19.4873,-2.9337,23.1975,3.1184,5.5867,2.9639,
15.734592,-1.4783,0.4255,1.4398,-19.4873,-2.9337,23.1975,3.1184,5.5867,2.9639,
15.755018,-1.6901,0.4818,1.2470,-19.4873,-2.9337,23.1975,3.1184,5.5867,2.9639,
15.761072,-1.6901,0.4818,1.2470,-19.4873,-2.9337,23.1975,5.3513,4.3140,5.9104,
15.770058,-1.6901,0.4818,1.2470,-7.5273,-3.1498,10.6817,5.3513,4.3140,5.9104,
15.774382,-1.3674,0.3471,1.0235,-7.5273,-3.1498,10.6817,5.3513,4.3140,5.9104,
15.795952,-1.0054,0.0294,0.6466,-7.5273,-3.1498,10.6817,5.3513,4.3140,5.9104,
15.815247,-0.7365,-0.1788,0.3905,-7.5273,-3.1498,10.6817,5.3513,4.3140,5.9104,
15.824875,-0.7365,-0.1788,0.3905,-7.5273,-3.1498,10.6817,6.5135,9.5971,10.4215,
15.842724,-0.1326,-0.2113,0.7449,-7.5273,-3.1498,10.6817,6.5135,9.5971,10.4215,
15.845637,-0.1326,-0.2113,0.7449,-11.0183,-2.1401,8.7315,6.5135,9.5971,10.4215,
15.861038,0.4770,-0.1354,0.9415,-11.0183,-2.1401,8.7315,6.5135,9.5971,10.4215,
15.874672,1.0447,-0.0141,0.7411,-11.0183,-2.1401,8.7315,6.5135,9.5971,10.4215,
15.890082,1.0447,-0.0141,0.7411,-11.0183,-2.1401,8.7315,2.5905,4.0319,6.9776,
15.905949,1.3070,-0.1061,0.4385,-11.0183,-2.1401,8.7315,2.5905,4.0319,6.9776,
15.908530,1.3070,-0.1061,0.4385,-6.7082,-9.2143,5.4283,2.5905,4.0319,6.9776,
15.920917,1.6570,-0.1004,0.1730,-6.7082,-9.2143,5.4283,2.5905,4.0319,6.9776,
15.934873,2.0975,-0.0919,0.0836,-6.7082,-9.2143,5.4283,2.5905,4.0319,6.9776,
15.954572,2.0975,-0.0919,0.0836,-6.7082,-9.2143,5.4283,-0.1830,-2.7268,-0.7450,
15.956746,2.5129,-0.3700,-0.0135,-6.7082,-9.2143,5.4283,-0.1830,-2.7268,-0.7450,
15.964756,2.5129,-0.3700,-0.0135,6.4979,-8.4722,6.8279,-0.1830,-2.7268,-0.7450,
15.974733,2.0043,-1.0485,0.1848,6.4979,-8.4722,6.8279,-0.1830,-2.7268,-0.7450,
15.994695,0.5931,-1.7087,0.5371,6.4979,-8.4722,6.8279,-0.1830,-2.7268,-0.7450,
16.015485,-0.4050,-1.8787,0.9248,6.4979,-8.4722,6.8279,-0.1830,-2.7268,-0.7450,
16.021061,-0.4050,-1.8787,0.9248,6.4979,-8.4722,6.8279,-11.8930,-15.7321,-12.7769,
16.039046,-0.4050,-1.8787,0.9248,19.6948,-10.8686,0.7550,-11.8930,-15.7321,-12.7769,
16.041429,-0.5435,-1.2443,2.0950,19.6948,-10.8686,0.7550,-11.8930,-15.7321,-12.7769,
16.054385,-0.6579,-0.2780,3.5690,19.6948,-10.8686,0.7550,-11.8930,-15.7321,-12.7769,
16.075581,-1.0447,0.0751,2.8809,19.6948,-10.8686,0.7550,-11.8930,-15.7321,-12.7769,
16.084441,-1.0447,0.0751,2.8809,19.6948,-10.8686,0.7550,-9.9460,-8.6675,-5.6222,
16.108386,-1.3195,-0.0955,1.3386,19.6948,-10.8686,0.7550,-9.9460,-8.6675,-5.6222,
16.110964,-1.3195,-0.0955,1.3386,1.9256,-19.6525,2.5136,-9.9460,-8.6675,-5.6222,
16.115765,-1.0210,-0.1824,1.0641,1.9256,-19.6525,2.5136,-9.9460,-8.6675,-5.6222,
16.134874,-0.7755,-0.0679,1.8318,1.9256,-19.6525,2.5136,-9.9460,-8.6675,-5.6222,
16.150573,-0.7755,-0.0679,1.8318,1.9256,-19.6525,2.5136,1.4654,6.6963,2.8046,
16.154712,-0.8149,0.2820,2.1021,1.9256,-19.6525,2.5136,1.4654,6.6963,2.8046,
16.160643,-0.8149,0.2820,2.1021,-10.3045,-3.0465,17.9452,1.4654,6.6963,2.8046,
16.176831,-1.0665,0.4745,1.7828,-10.3045,-3.0465,17.9452,1.4654,6.6963,2.8046,
16.194585,-1.4406,0.6414,1.6374,-10.3045,-3.0465,17.9452,1.4654,6.6963,2.8046,
16.215669,-1.5898,0.6537,1.5053,-10.3045,-3.0465,17.9452,1.4654,6.6963,2.8046,
16.219411,-1.5898,0.6537,1.5053,-10.3045,-3.0465,17.9452,2.5199,2.5108,4.1128,
16.225000,-1.5898,0.6537,1.5053,-6.7611,-1.6981,8.9974,2.5199,2.5108,4.1128,
16.246681,-1.2953,0.4140,1.3046,-6.7611,-1.6981,8.9974,2.5199,2.5108,4.1128,
16.254545,-0.9617,0.2079,1.0325,-6.7611,-1.6981,8.9974,2.5199,2.5108,4.1128,
16.274361,-0.8743,0.1626,0.7552,-6.7611,-1.6981,8.9974,2.5199,2.5108,4.1128,
16.280381,-0.8743,0.1626,0.7552,-6.7611,-1.6981,8.9974,5.6499,7.7271,8.9581,
16.289965,-0.8743,0.1626,0.7552,-11.1518,1.0170,9.3232,5.6499,7.7271,8.9581,
16.305369,-0.4344,-0.0217,0.7302,-11.1518,1.0170,9.3232,5.6499,7.7271,8.9581,
16.315289,0.0051,-0.1915,0.7402,-11.1518,1.0170,9.3232,5.6499,7.7271,8.9581,
16.335487,0.3868,-0.0606,0.7563,-11.1518,1.0170,9.3232,5.6499,7.7271,8.9581,
16.348093,0.3868,-0.0606,0.7563,-11.1518,1.0170,9.3232,2.7754,4.2828,8.5460,
16.354842,0.8147,-0.0390,0.7372,-11.1518,1.0170,9.3232,2.7754,4.2828,8.5460,
16.357517,0.8147,-0.0390,0.7372,-7.3338,-5.7001,5.6309,2.7754,4.2828,8.5460,
16.374518,1.2129,-0.0013,0.6124,-7.3338,-5.7001,5.6309,2.7754,4.2828,8.5460,
16.395483,1.6327,0.0648,0.5122,-7.3338,-5.7001,5.6309,2.7754,4.2828,8.5460,
16.411412,1.6327,0.0648,0.5122,-7.3338,-5.7001,5.6309,1.3913,-0.1647,3.1855,
16.415300,2.2190,0.0162,0.1388,-7.3338,-5.7001,5.6309,1.3913,-0.1647,3.1855,
16.421037,2.2190,0.0162,0.1388,1.3291,-8.4068,5.1083,1.3913,-0.1647,3.1855,
16.435181,2.8789,-0.3685,-0.2535,1.3291,-8.4068,5.1083,1.3913,-0.1647,3.1855,
16.454961,2.3622,-1.1213,-0.4170,1.3291,-8.4068,5.1083,1.3913,-0.1647,3.1855,
16.475057,1.0131,-2.2005,-0.0829,1.3291,-8.4068,5.1083,1.3913,-0.1647,3.1855,
16.476918,1.0131,-2.2005,-0.0829,1.3291,-8.4068,5.1083,-7.7143,-9.8700,-9.6846,
16.485207,1.0131,-2.2005,-0.0829,14.3071,-7.0920,2.0772,-7.7143,-9.8700,-9.6846,
16.497154,0.0967,-2.9343,0.6291,14.3071,-7.0920,2.0772,-7.7143,-9.8700,-9.6846,
16.515096,-0.3096,-2.7092,2.0772,14.3071,-7.0920,2.0772,-7.7143,-9.8700,-9.6846,
16.535351,-0.5005,-1.8726,3.4983,14.3071,-7.0920,2.0772,-7.7143,-9.8700,-9.6846,
16.540748,-0.5005,-1.8726,3.4983,14.3071,-7.0920,2.0772,-16.7579,-9.8169,-11.9178,
16.556969,-0.5005,-1.8726,3.4983,16.5178,-20.6073,-7.0558,-16.7579,-9.8169,-11.9178,
16.560471,-1.5241,-0.5000,4.1468,16.5178,-20.6073,-7.0558,-16.7579,-9.8169,-11.9178,
16.580051,-2.1670,-0.2209,2.8448,16.5178,-20.6073,-7.0558,-16.7579,-9.8169,-11.9178,
16.601140,-1.2712,-0.5718,1.4622,16.5178,-20.6073,-7.0558,-16.7579,-9.8169,-11.9178,
16.604075,-1.2712,-0.5718,1.4622,16.5178,-20.6073,-7.0558,0.0247,2.7238,-0.2485,
16.624405,-0.2474,-0.6496,1.6378,16.5178,-20.6073,-7.0558,0.0247,2.7238,-0.2485,
16.626959,-0.2474,-0.6496,1.6378,-7.5772,-19.1634,19.8515,0.0247,2.7238,-0.2485,
16.640338,0.0652,-0.3435,2.0024,-7.5772,-19.1634,19.8515,0.0247,2.7238,-0.2485,
16.654547,-0.2579,-0.1191,1.7802,-7.5772,-19.1634,19.8515,0.0247,2.7238,-0.2485,
16.670601,-0.2579,-0.1191,1.7802,-7.5772,-19.1634,19.8515,0.9413,0.8229,0.0418,
16.674221,-0.7527,0.0664,1.5486,-7.5772,-19.1634,19.8515,0.9413,0.8229,0.0418,
16.680115,-0.7527,0.0664,1.5486,-12.1513,-4.7710,13.0086,0.9413,0.8229,0.0418,
16.707960,-0.9532,0.2490,1.3123,-12.1513,-4.7710,13.0086,0.9413,0.8229,0.0418,
16.715224,-0.8323,0.2518,1.1613,-12.1513,-4.7710,13.0086,0.9413,0.8229,0.0418,
16.734668,-0.6276,0.2050,1.1642,-12.1513,-4.7710,13.0086,0.9413,0.8229,0.0418,
16.737252,-0.6276,0.2050,1.1642,-12.1513,-4.7710,13.0086,4.7610,3.6945,2.3759,
16.746939,-0.6276,0.2050,1.1642,-3.1611,-1.8765,8.9388,4.7610,3.6945,2.3759,
16.754530,-0.6205,0.2184,1.0661,-3.1611,-1.8765,8.9388,4.7610,3.6945,2.3759,
16.774405,-0.7287,0.2497,0.8291,-3.1611,-1.8765,8.9388,4.7610,3.6945,2.3759,
16.794554,-0.7982,0.2979,0.6992,-3.1611,-1.8765,8.9388,4.7610,3.6945,2.3759,
16.801499,-0.7982,0.2979,0.6992,-3.1611,-1.8765,8.9388,7.3512,8.8958,6.4078,
16.814885,-0.7982,0.2979,0.6992,-4.8606,-1.8112,4.7989,7.3512,8.8958,6.4078,
16.818189,-0.6783,0.2490,0.6959,-4.8606,-1.8112,4.7989,7.3512,8.8958,6.4078,
16.840122,-0.3775,0.1513,0.8472,-4.8606,-1.8112,4.7989,7.3512,8.8958,6.4078,
16.861350,0.1019,0.1359,0.8407,-4.8606,-1.8112,4.7989,7.3512,8.8958,6.4078,
16.864235,0.1019,0.1359,0.8407,-4.8606,-1.8112,4.7989,5.1017,8.2622,7.5845,
16.874660,0.1019,0.1359,0.8407,-4.5203,-4.9289,5.4823,5.1017,8.2622,7.5845,
16.876934,1.5541,0.0010,0.3883,-4.5203,-4.9289,5.4823,5.1017,8.2622,7.5845,
16.894881,3.5445,-0.6408,-0.5456,-4.5203,-4.9289,5.4823,5.1017,8.2622,7.5845,
16.915156,3.1271,-1.5294,-0.7322,-4.5203,-4.9289,5.4823,5.1017,8.2622,7.5845,
16.931340,3.1271,-1.5294,-0.7322,-4.5203,-4.9289,5.4823,-6.2507,-9.0304,-6.2810,
16.934851,1.0594,-2.4506,0.7842,-4.5203,-4.9289,5.4823,-6.2507,-9.0304,-6.2810,
16.940847,1.0594,-2.4506,0.7842,2.9589,-7.1320,7.0790,-6.2507,-9.0304,-6.2810,
16.954959,-0.1339,-2.7499,2.3259,2.9589,-7.1320,7.0790,-6.2507,-9.0304,-6.2810,
16.974774,-1.1046,-1.8484,4.3053,2.9589,-7.1320,7.0790,-6.2507,-9.0304,-6.2810,
16.995000,-1.9142,-0.3071,4.6947,2.9589,-7.1320,7.0790,-6.2507,-9.0304,-6.2810,
16.998019,-1.9142,-0.3071,4.6947,2.9589,-7.1320,7.0790,-14.0143,-13.1891,-12.5491,
17.004891,-1.9142,-0.3071,4.6947,24.9955,-20.9242,-5.8905,-14.0143,-13.1891,-12.5491,
17.029715,-2.4671,0.1606,2.7295,24.9955,-20.9242,-5.8905,-14.0143,-13.1891,-12.5491,
17.034939,-1.2101,-0.4428,0.5029,24.9955,-20.9242,-5.8905,-14.0143,-13.1891,-12.5491,
17.054346,-0.0920,-0.4398,0.9618,24.9955,-20.9242,-5.8905,-14.0143,-13.1891,-12.5491,
17.063175,-0.0920,-0.4398,0.9618,24.9955,-20.9242,-5.8905,3.1968,3.5612,1.4715,
17.070657,-0.0920,-0.4398,0.9618,-14.8087,-12.2973,30.3814,3.1968,3.5612,1.4715,
17.074711,0.3955,-0.1774,1.6536,-14.8087,-12.2973,30.3814,3.1968,3.5612,1.4715,
17.094421,0.0269,0.0526,1.4040,-14.8087,-12.2973,30.3814,3.1968,3.5612,1.4715,
17.116056,-0.7613,0.3273,1.1282,-14.8087,-12.2973,30.3814,3.1968,3.5612,1.4715,
17.124523,-0.7613,0.3273,1.1282,-14.8087,-12.2973,30.3814,-0.3023,-1.4944,-0.7608,
17.134906,-1.1666,0.5751,1.2955,-14.8087,-12.2973,30.3814,-0.3023,-1.4944,-0.7608,
17.137958,-1.1666,0.5751,1.2955,-5.3343,-4.8975,3.0230,-0.3023,-1.4944,-0.7608,
17.155896,-1.1695,0.4791,1.3961,-5.3343,-4.8975,3.0230,-0.3023,-1.4944,-0.7608,
17.174104,-1.0700,0.3883,1.3680,-5.3343,-4.8975,3.0230,-0.3023,-1.4944,-0.7608,
17.191475,-1.0700,0.3883,1.3680,-5.3343,-4.8975,3.0230,4.5188,6.0200,3.8335,
17.194502,-0.9977,0.3503,1.2770,-5.3343,-4.8975,3.0230,4.5188,6.0200,3.8335,
17.201525,-0.9977,0.3503,1.2770,-4.8465,1.1024,4.8243,4.5188,6.0200,3.8335,
17.214719,-0.9864,0.3102,0.8680,-4.8465,1.1024,4.8243,4.5188,6.0200,3.8335,
17.235571,-0.8325,0.2824,0.6390,-4.8465,1.1024,4.8243,4.5188,6.0200,3.8335,
17.254212,-0.8325,0.2824,0.6390,-4.8465,1.1024,4.8243,4.7092,6.2962,6.4538,
17.256351,-0.4931,0.2739,0.6845,-4.8465,1.1024,4.8243,4.7092,6.2962,6.4538,
17.264154,-0.4931,0.2739,0.6845,-7.4744,-0.9191,6.9532,4.7092,6.2962,6.4538,
17.274162,-0.3468,0.3121,0.5452,-7.4744,-0.9191,6.9532,4.7092,6.2962,6.4538,
17.294495,-0.1745,0.3079,0.3918,-7.4744,-0.9191,6.9532,4.7092,6.2962,6.4538,
17.314839,0.2244,0.2096,0.3270,-7.4744,-0.9191,6.9532,4.7092,6.2962,6.4538,
17.320853,0.2244,0.2096,0.3270,-7.4744,-0.9191,6.9532,2.5761,3.3510,5.7411,
17.333271,0.2244,0.2096,0.3270,-4.5620,-4.4130,3.2703,2.5761,3.3510,5.7411,
17.337178,1.4897,-0.0332,0.1197,-4.5620,-4.4130,3.2703,2.5761,3.3510,5.7411,
17.354377,3.2227,-0.4994,-0.6574,-4.5620,-4.4130,3.2703,2.5761,3.3510,5.7411,
17.374287,2.8483,-1.7042,-0.9564,-4.5620,-4.4130,3.2703,2.5761,3.3510,5.7411,
17.384037,2.8483,-1.7042,-0.9564,-4.5620,-4.4130,3.2703,-6.3275,-6.4201,-5.2945,
17.396744,2.8483,-1.7042,-0.9564,2.6691,-5.8501,1.1598,-6.3275,-6.4201,-5.2945,
17.399136,0.9511,-2.8521,0.4407,2.6691,-5.8501,1.1598,-6.3275,-6.4201,-5.2945,
17.415074,-0.2388,-3.0267,2.2829,2.6691,-5.8501,1.1598,-6.3275,-6.4201,-5.2945,
17.435228,-0.9958,-2.1437,4.0282,2.6691,-5.8501,1.1598,-6.3275,-6.4201,-5.2945,
17.451786,-0.9958,-2.1437,4.0282,2.6691,-5.8501,1.1598,-13.4647,-7.9593,-11.5090,
17.455618,-2.2631,-0.4024,5.0503,2.6691,-5.8501,1.1598,-13.4647,-7.9593,-11.5090,
17.475807,-2.2631,-0.4024,5.0503,23.2880,-19.0732,-10.4563,-13.4647,-7.9593,-11.5090,
17.479062,-2.4891,-0.2106,2.2155,23.2880,-19.0732,-10.4563,-13.4647,-7.9593,-11.5090,
17.494130,-0.8611,-0.6211,0.6064,23.2880,-19.0732,-10.4563,-13.4647,-7.9593,-11.5090,
17.514348,0.1794,-0.3897,1.3099,23.2880,-19.0732,-10.4563,-13.4647,-7.9593,-11.5090,
17.517242,0.1794,-0.3897,1.3099,23.2880,-19.0732,-10.4563,3.2273,3.0371,0.7255,
17.523885,0.1794,-0.3897,1.3099,-13.7491,-16.0607,28.8244,3.2273,3.0371,0.7255,
17.539678,0.2422,-0.0480,1.5306,-13.7491,-16.0607,28.8244,3.2273,3.0371,0.7255,
17.554121,-0.4080,0.1434,1.2124,-13.7491,-16.0607,28.8244,3.2273,3.0371,0.7255,
17.574604,-1.0990,0.4437,1.1786,-13.7491,-16.0607,28.8244,3.2273,3.0371,0.7255,
17.579634,-1.0990,0.4437,1.1786,-13.7491,-16.0607,28.8244,-0.0183,-1.8161,-1.2052,
17.591339,-1.0990,0.4437,1.1786,-6.2750,-4.6538,3.8930,-0.0183,-1.8161,-1.2052,
17.594486,-1.0527,0.3750,1.2395,-6.2750,-4.6538,3.8930,-0.0183,-1.8161,-1.2052,
17.619182,-0.8784,0.2607,1.3533,-6.2750,-4.6538,3.8930,-0.0183,-1.8161,-1.2052,
17.634285,-0.8224,0.2469,1.3596,-6.2750,-4.6538,3.8930,-0.0183,-1.8161,-1.2052,
17.645840,-0.8224,0.2469,1.3596,-6.2750,-4.6538,3.8930,4.0658,5.0593,3.3345,
17.654789,-1.2238,0.3573,1.1960,-6.2750,-4.6538,3.8930,4.0658,5.0593,3.3345,
17.656601,-1.2238,0.3573,1.1960,-6.4914,1.5955,3.8590,4.0658,5.0593,3.3345,
17.674256,-1.6229,0.4726,0.9572,-6.4914,1.5955,3.8590,4.0658,5.0593,3.3345,
17.694499,-1.5519,0.2677,1.0040,-6.4914,1.5955,3.8590,4.0658,5.0593,3.3345,
17.713456,-1.5519,0.2677,1.0040,-6.4914,1.5955,3.8590,4.9339,6.9828,7.6973,
17.717676,-1.0639,-0.0319,1.1357,-6.4914,1.5955,3.8590,4.9339,6.9828,7.6973,
17.720956,-1.0639,-0.0319,1.1357,-6.8650,-1.0364,5.6485,4.9339,6.9828,7.6973,
17.733983,-0.6422,-0.1353,1.1607,-6.8650,-1.0364,5.6485,4.9339,6.9828,7.6973,
17.753979,-0.3521,-0.1942,1.1246,-6.8650,-1.0364,5.6485,4.9339,6.9828,7.6973,
17.775118,-0.3521,-0.1942,1.1246,-6.8650,-1.0364,5.6485,4.0876,5.6795,9.3547,
17.778248,0.1016,-0.3389,0.9957,-6.8650,-1.0364,5.6485,4.0876,5.6795,9.3547,
17.784305,0.1016,-0.3389,0.9957,-11.0668,-5.0336,6.0404,4.0876,5.6795,9.3547,
17.812593,0.7174,-0.3773,0.8505,-11.0668,-5.0336,6.0404,4.0876,5.6795,9.3547,
17.815094,1.9058,-0.2613,0.5765,-11.0668,-5.0336,6.0404,4.0876,5.6795,9.3547,
17.834046,3.8479,-0.4624,-0.5184,-11.0668,-5.0336,6.0404,4.0876,5.6795,9.3547,
17.840124,3.8479,-0.4624,-0.5184,-11.0668,-5.0336,6.0404,1.3961,-0.4969,2.8227,
17.850444,3.8479,-0.4624,-0.5184,-2.5918,-10.4959,8.1602,1.3961,-0.4969,2.8227,
17.854236,3.4743,-1.4861,-1.1847,-2.5918,-10.4959,8.1602,1.3961,-0.4969,2.8227,
17.876052,1.4692,-2.9324,0.0946,-2.5918,-10.4959,8.1602,1.3961,-0.4969,2.8227,
17.894725,0.0621,-3.8732,1.5679,-2.5918,-10.4959,8.1602,1.3961,-0.4969,2.8227,
17.904423,0.0621,-3.8732,1.5679,-2.5918,-10.4959,8.1602,-14.3074,-10.7663,-15.0335,
17.926802,-0.9281,-3.3831,3.5080,-2.5918,-10.4959,8.1602,-14.3074,-10.7663,-15.0335,
17.929542,-0.9281,-3.3831,3.5080,25.7249,-13.4537,-3.8779,-14.3074,-10.7663,-15.0335,
17.934642,-1.5347,-2.1337,4.4614,25.7249,-13.4537,-3.8779,-14.3074,-10.7663,-15.0335,
17.954129,-3.1414,-0.0440,4.9987,25.7249,-13.4537,-3.8779,-14.3074,-10.7663,-15.0335,
17.969769,-3.1414,-0.0440,4.9987,25.7249,-13.4537,-3.8779,-6.9590,-6.1728,-9.0335,
17.974101,-2.9628,0.0137,1.7499,25.7249,-13.4537,-3.8779,-6.9590,-6.1728,-9.0335,
17.989988,-2.9628,0.0137,1.7499,3.7023,-33.4023,7.1555,-6.9590,-6.1728,-9.0335,
17.995362,-0.9464,-0.6375,0.5787,3.7023,-33.4023,7.1555,-6.9590,-6.1728,-9.0335,
18.013905,0.1800,-0.4264,1.4025,3.7023,-33.4023,7.1555,-6.9590,-6.1728,-9.0335,
18.033753,0.2860,-0.0876,1.6107,3.7023,-33.4023,7.1555,-6.9590,-6.1728,-9.0335,
18.036115,0.2860,-0.0876,1.6107,3.7023,-33.4023,7.1555,3.4191,5.0586,2.9450,
18.045444,0.2860,-0.0876,1.6107,-25.3016,-7.1634,25.9920,3.4191,5.0586,2.9450,
18.054262,-0.2243,0.0781,1.2027,-25.3016,-7.1634,25.9920,3.4191,5.0586,2.9450,
18.073473,-0.7978,0.2666,1.0179,-25.3016,-7.1634,25.9920,3.4191,5.0586,2.9450,
18.093839,-1.1496,0.3799,1.2158,-25.3016,-7.1634,25.9920,3.4191,5.0586,2.9450,
18.100128,-1.1496,0.3799,1.2158,-25.3016,-7.1634,25.9920,0.9175,0.0014,0.4799,
18.112020,-1.1496,0.3799,1.2158,0.3165,-4.2344,4.2951,0.9175,0.0014,0.4799,
18.114930,-1.3174,0.3811,1.5114,0.3165,-4.2344,4.2951,0.9175,0.0014,0.4799,
18.139854,-1.2671,0.3833,1.6894,0.3165,-4.2344,4.2951,0.9175,0.0014,0.4799,
18.153776,-1.1097,0.2762,1.4814,0.3165,-4.2344,4.2951,0.9175,0.0014,0.4799,
18.163724,-1.1097,0.2762,1.4814,0.3165,-4.2344,4.2951,6.2949,7.7583,6.1532,
18.173972,-1.0027,0.2153,0.9491,0.3165,-4.2344,4.2951,6.2949,7.7583,6.1532,
18.175547,-1.0027,0.2153,0.9491,-7.7592,0.4400,3.9087,6.2949,7.7583,6.1532,
18.194348,-0.7901,0.1544,0.6527,-7.7592,0.4400,3.9087,6.2949,7.7583,6.1532,
18.214831,-0.5272,0.2443,0.5992,-7.7592,0.4400,3.9087,6.2949,7.7583,6.1532,
18.230400,-0.5272,0.2443,0.5992,-7.7592,0.4400,3.9087,5.4458,6.4735,8.1253,
18.234308,-0.2489,0.2478,0.6003,-7.7592,0.4400,3.9087,5.4458,6.4735,8.1253,
18.240115,-0.2489,0.2478,0.6003,-8.2962,-3.3556,8.7932,5.4458,6.4735,8.1253,
18.254052,0.1017,0.1854,0.5272,-8.2962,-3.3556,8.7932,5.4458,6.4735,8.1253,
18.273552,0.6673,0.1087,0.4023,-8.2962,-3.3556,8.7932,5.4458,6.4735,8.1253,
18.293777,1.6315,0.2137,0.1131,-8.2962,-3.3556,8.7932,5.4458,6.4735,8.1253,
18.296388,1.6315,0.2137,0.1131,-8.2962,-3.3556,8.7932,2.9250,3.3917,6.0487,
18.304023,1.6315,0.2137,0.1131,-4.4291,-6.0608,4.2816,2.9250,3.3917,6.0487,
18.313812,3.0539,-0.0203,-0.6653,-4.4291,-6.0608,4.2816,2.9250,3.3917,6.0487,
18.334475,2.9968,-0.8495,-1.1090,-4.4291,-6.0608,4.2816,2.9250,3.3917,6.0487,
18.353440,1.5381,-2.0393,-0.2126,-4.4291,-6.0608,4.2816,2.9250,3.3917,6.0487,
18.361534,1.5381,-2.0393,-0.2126,-4.4291,-6.0608,4.2816,-9.0763,-8.6298,-7.4015,
18.369743,1.5381,-2.0393,-0.2126,9.5493,-6.4856,1.2214,-9.0763,-8.6298,-7.4015,
18.373407,0.6820,-2.9661,1.0911,9.5493,-6.4856,1.2214,-9.0763,-8.6298,-7.4015,
18.393825,-0.0508,-2.7202,2.8848,9.5493,-6.4856,1.2214,-9.0763,-8.6298,-7.4015,
18.415112,-0.5943,-1.7455,3.8568,9.5493,-6.4856,1.2214,-9.0763,-8.6298,-7.4015,
18.424725,-0.5943,-1.7455,3.8568,9.5493,-6.4856,1.2214,-15.0710,-8.9363,-11.0155,
18.448963,-0.5943,-1.7455,3.8568,19.9503,-20.2094,-9.6078,-15.0710,-8.9363,-11.0155,
18.451522,-1.7019,-0.1658,4.5554,19.9503,-20.2094,-9.6078,-15.0710,-8.9363,-11.0155,
18.453635,-2.1321,0.0764,2.0238,19.9503,-20.2094,-9.6078,-15.0710,-8.9363,-11.0155,
18.473683,-1.1216,-0.3812,0.2511,19.9503,-20.2094,-9.6078,-15.0710,-8.9363,-11.0155,
18.490215,-1.1216,-0.3812,0.2511,19.9503,-20.2094,-9.6078,3.0784,2.9929,0.7054,
18.503772,-0.1424,-0.3054,0.8292,19.9503,-20.2094,-9.6078,3.0784,2.9929,0.7054,
18.505815,-0.1424,-0.3054,0.8292,-8.5174,-16.4305,27.2516,3.0784,2.9929,0.7054,
18.513631,0.2244,0.0030,1.5426,-8.5174,-16.4305,27.2516,3.0784,2.9929,0.7054,
18.533420,0.0176,0.1464,1.4321,-8.5174,-16.4305,27.2516,3.0784,2.9929,0.7054,
18.553593,-0.3049,0.1574,1.1140,-8.5174,-16.4305,27.2516,3.0784,2.9929,0.7054,
18.556027,-0.3049,0.1574,1.1140,-8.5174,-16.4305,27.2516,0.5778,0.5659,0.2719,
18.564284,-0.3049,0.1574,1.1140,-9.5730,-3.7416,2.3810,0.5778,0.5659,0.2719,
18.573549,-0.7762,0.3078,0.9784,-9.5730,-3.7416,2.3810,0.5778,0.5659,0.2719,
18.593484,-1.0292,0.4024,1.0688,-9.5730,-3.7416,2.3810,0.5778,0.5659,0.2719,
18.613587,-1.1992,0.4696,1.2059,-9.5730,-3.7416,2.3810,0.5778,0.5659,0.2719,
18.620535,-1.1992,0.4696,1.2059,-9.5730,-3.7416,2.3810,2.7034,2.9309,1.5937,
18.631724,-1.1992,0.4696,1.2059,-0.9806,-0.7150,4.6275,2.7034,2.9309,1.5937,
18.634432,-1.5512,0.5917,1.3496,-0.9806,-0.7150,4.6275,2.7034,2.9309,1.5937,
18.654541,-1.9923,0.6473,1.4637,-0.9806,-0.7150,4.6275,2.7034,2.9309,1.5937,
18.676790,-2.0487,0.3886,1.3956,-0.9806,-0.7150,4.6275,2.7034,2.9309,1.5937,
18.684485,-2.0487,0.3886,1.3956,-0.9806,-0.7150,4.6275,5.9086,7.4925,8.3017,
18.695976,-2.0487,0.3886,1.3956,-9.3283,0.4112,4.2272,5.9086,7.4925,8.3017,
18.699522,-1.6327,-0.0403,1.3214,-9.3283,0.4112,4.2272,5.9086,7.4925,8.3017,
18.714292,-1.0331,-0.4497,1.2400,-9.3283,0.4112,4.2272,5.9086,7.4925,8.3017,
18.734336,-0.2736,-0.7376,0.9910,-9.3283,0.4112,4.2272,5.9086,7.4925,8.3017,
18.750165,-0.2736,-0.7376,0.9910,-9.3283,0.4112,4.2272,5.0581,7.0843,12.2204,
18.754326,0.6876,-0.7527,1.0491,-9.3283,0.4112,4.2272,5.0581,7.0843,12.2204,
18.775791,0.6876,-0.7527,1.0491,-17.1105,-4.0162,9.8713,5.0581,7.0843,12.2204,
18.778966,1.7245,-0.5841,0.8926,-17.1105,-4.0162,9.8713,5.0581,7.0843,12.2204,
18.794664,3.0481,-0.3796,0.3003,-17.1105,-4.0162,9.8713,5.0581,7.0843,12.2204,
18.813636,4.1329,-0.5006,-0.6726,-17.1105,-4.0162,9.8713,5.0581,7.0843,12.2204,
18.816437,4.1329,-0.5006,-0.6726,-17.1105,-4.0162,9.8713,0.6525,-1.3087,3.1297,
18.823677,4.1329,-0.5006,-0.6726,-4.3302,-13.6035,8.5522,0.6525,-1.3087,3.1297,
18.839475,2.8048,-1.3205,-0.8374,-4.3302,-13.6035,8.5522,0.6525,-1.3087,3.1297,
18.853556,0.6436,-2.0906,-0.0501,-4.3302,-13.6035,8.5522,0.6525,-1.3087,3.1297,
18.873513,-0.0549,-2.2346,0.9891,-4.3302,-13.6035,8.5522,0.6525,-1.3087,3.1297,
18.880176,-0.0549,-2.2346,0.9891,-4.3302,-13.6035,8.5522,-12.7563,-10.2385,-12.6648,
18.889936,-0.0549,-2.2346,0.9891,27.2606,-12.6561,-2.5255,-12.7563,-10.2385,-12.6648,
18.909523,-0.0864,-1.7790,2.3084,27.2606,-12.6561,-2.5255,-12.7563,-10.2385,-12.6648,
18.915574,-0.4938,-1.3365,2.4316,27.2606,-12.6561,-2.5255,-12.7563,-10.2385,-12.6648,
18.933566,-1.2976,-0.5683,2.4511,27.2606,-12.6561,-2.5255,-12.7563,-10.2385,-12.6648,
18.944723,-1.2976,-0.5683,2.4511,27.2606,-12.6561,-2.5255,-10.8328,-6.2289,-9.3141,
18.953950,-1.9220,0.1488,2.4746,27.2606,-12.6561,-2.5255,-10.8328,-6.2289,-9.3141,
18.956642,-1.9220,0.1488,2.4746,3.7011,-23.9284,0.2896,-10.8328,-6.2289,-9.3141,
18.973943,-1.6889,0.0551,2.0436,3.7011,-23.9284,0.2896,-10.8328,-6.2289,-9.3141,
18.993500,-0.6899,-0.3307,1.6186,3.7011,-23.9284,0.2896,-10.8328,-6.2289,-9.3141,
19.012431,-0.6899,-0.3307,1.6186,3.7011,-23.9284,0.2896,0.5049,2.1457,1.1832,
19.017026,-0.0224,-0.3491,1.5889,3.7011,-23.9284,0.2896,0.5049,2.1457,1.1832,
19.020093,-0.0224,-0.3491,1.5889,-13.2188,-7.6811,16.3040,0.5049,2.1457,1.1832,
19.037570,0.1327,-0.1185,1.5760,-13.2188,-7.6811,16.3040,0.5049,2.1457,1.1832,
19.053229,-0.1404,0.0594,1.2952,-13.2188,-7.6811,16.3040,0.5049,2.1457,1.1832,
19.073419,-0.7216,0.2864,1.3342,-13.2188,-7.6811,16.3040,0.5049,2.1457,1.1832,
19.076248,-0.7216,0.2864,1.3342,-13.2188,-7.6811,16.3040,1.0630,0.5202,0.6023,
